Cloudy version 17.01, OIII spectra (quantities in log10)
density	temperature	eden	cool	O  3 (4363.209961 A)	O  3 (5006.839844 A)	
2.000	3.700	2.005	-19.900	-3.6119	0.0000	
2.000	3.750	2.007	-19.837	-3.3008	0.0000	
2.000	3.800	2.009	-19.756	-3.0234	0.0000	
2.000	3.850	2.012	-19.656	-2.7761	0.0000	
2.000	3.900	2.014	-19.541	-2.5560	0.0000	
2.000	3.950	2.015	-19.413	-2.3601	0.0000	
2.000	4.000	2.017	-19.273	-2.1858	0.0000	
2.000	4.050	2.019	-19.121	-2.0305	0.0000	
2.000	4.100	2.021	-18.954	-1.8922	0.0000	
2.000	4.150	2.022	-18.773	-1.7689	0.0000	
2.000	4.200	2.024	-18.583	-1.6591	0.0000	
2.000	4.250	2.026	-18.400	-1.5615	0.0000	
2.000	4.300	2.028	-18.241	-1.4751	0.0000	
2.000	4.350	2.031	-18.126	-1.3987	0.0000	
2.000	4.400	2.034	-18.060	-1.3310	0.0000	
2.000	4.450	2.036	-18.023	-1.2714	0.0000	
2.000	4.500	2.038	-17.988	-1.2185	0.0000	
2.000	4.550	2.039	-17.939	-1.1714	0.0000	
2.000	4.600	2.041	-17.878	-1.1296	0.0000	
2.000	4.650	2.041	-17.806	-1.0926	0.0000	
2.000	4.700	2.042	-17.727	-1.0599	0.0000	
2.000	4.750	2.043	-17.639	-1.0311	0.0000	
2.000	4.800	2.046	-17.541	-1.0056	0.0000	
2.000	4.850	2.053	-17.442	-0.9833	0.0000	
2.000	4.900	2.063	-17.367	-0.9637	0.0000	
2.000	4.950	2.071	-17.326	-0.9466	0.0000	
2.000	5.000	2.076	-17.313	-0.9318	0.0000	
2.050	3.700	2.055	-19.806	-3.6119	0.0000	
2.050	3.750	2.057	-19.742	-3.3007	0.0000	
2.050	3.800	2.059	-19.660	-3.0233	0.0000	
2.050	3.850	2.062	-19.559	-2.7761	0.0000	
2.050	3.900	2.064	-19.443	-2.5560	0.0000	
2.050	3.950	2.065	-19.314	-2.3601	0.0000	
2.050	4.000	2.067	-19.174	-2.1857	0.0000	
2.050	4.050	2.069	-19.022	-2.0304	0.0000	
2.050	4.100	2.071	-18.855	-1.8922	0.0000	
2.050	4.150	2.072	-18.673	-1.7688	0.0000	
2.050	4.200	2.074	-18.483	-1.6591	0.0000	
2.050	4.250	2.076	-18.300	-1.5615	0.0000	
2.050	4.300	2.078	-18.141	-1.4751	0.0000	
2.050	4.350	2.081	-18.026	-1.3987	0.0000	
2.050	4.400	2.084	-17.961	-1.3309	0.0000	
2.050	4.450	2.086	-17.924	-1.2714	0.0000	
2.050	4.500	2.088	-17.888	-1.2185	0.0000	
2.050	4.550	2.089	-17.839	-1.1714	0.0000	
2.050	4.600	2.091	-17.778	-1.1296	0.0000	
2.050	4.650	2.091	-17.706	-1.0926	0.0000	
2.050	4.700	2.092	-17.627	-1.0599	0.0000	
2.050	4.750	2.093	-17.539	-1.0310	0.0000	
2.050	4.800	2.096	-17.441	-1.0056	0.0000	
2.050	4.850	2.103	-17.342	-0.9833	0.0000	
2.050	4.900	2.113	-17.267	-0.9637	0.0000	
2.050	4.950	2.121	-17.226	-0.9466	0.0000	
2.050	5.000	2.126	-17.213	-0.9318	0.0000	
2.100	3.700	2.105	-19.712	-3.6118	0.0000	
2.100	3.750	2.107	-19.647	-3.3007	0.0000	
2.100	3.800	2.109	-19.564	-3.0233	0.0000	
2.100	3.850	2.112	-19.462	-2.7761	0.0000	
2.100	3.900	2.114	-19.345	-2.5560	0.0000	
2.100	3.950	2.115	-19.216	-2.3601	0.0000	
2.100	4.000	2.117	-19.076	-2.1857	0.0000	
2.100	4.050	2.119	-18.923	-2.0304	0.0000	
2.100	4.100	2.121	-18.756	-1.8922	0.0000	
2.100	4.150	2.122	-18.573	-1.7688	0.0000	
2.100	4.200	2.124	-18.383	-1.6590	0.0000	
2.100	4.250	2.126	-18.200	-1.5615	0.0000	
2.100	4.300	2.128	-18.041	-1.4751	0.0000	
2.100	4.350	2.131	-17.926	-1.3987	0.0000	
2.100	4.400	2.134	-17.861	-1.3309	0.0000	
2.100	4.450	2.136	-17.824	-1.2714	0.0000	
2.100	4.500	2.138	-17.788	-1.2184	0.0000	
2.100	4.550	2.139	-17.740	-1.1713	0.0000	
2.100	4.600	2.141	-17.678	-1.1296	0.0000	
2.100	4.650	2.141	-17.607	-1.0926	0.0000	
2.100	4.700	2.142	-17.527	-1.0599	0.0000	
2.100	4.750	2.143	-17.439	-1.0310	0.0000	
2.100	4.800	2.146	-17.341	-1.0056	0.0000	
2.100	4.850	2.153	-17.243	-0.9832	0.0000	
2.100	4.900	2.163	-17.167	-0.9637	0.0000	
2.100	4.950	2.171	-17.126	-0.9466	0.0000	
2.100	5.000	2.176	-17.113	-0.9318	0.0000	
2.150	3.700	2.155	-19.618	-3.6118	0.0000	
2.150	3.750	2.157	-19.552	-3.3006	0.0000	
2.150	3.800	2.159	-19.468	-3.0233	0.0000	
2.150	3.850	2.162	-19.366	-2.7761	0.0000	
2.150	3.900	2.164	-19.248	-2.5559	0.0000	
2.150	3.950	2.165	-19.118	-2.3601	0.0000	
2.150	4.000	2.167	-18.977	-2.1857	0.0000	
2.150	4.050	2.169	-18.824	-2.0304	0.0000	
2.150	4.100	2.171	-18.656	-1.8921	0.0000	
2.150	4.150	2.172	-18.474	-1.7688	0.0000	
2.150	4.200	2.174	-18.284	-1.6590	0.0000	
2.150	4.250	2.176	-18.101	-1.5614	0.0000	
2.150	4.300	2.178	-17.942	-1.4750	0.0000	
2.150	4.350	2.181	-17.827	-1.3987	0.0000	
2.150	4.400	2.184	-17.761	-1.3309	0.0000	
2.150	4.450	2.186	-17.724	-1.2713	0.0000	
2.150	4.500	2.188	-17.688	-1.2184	0.0000	
2.150	4.550	2.189	-17.640	-1.1713	0.0000	
2.150	4.600	2.191	-17.579	-1.1295	0.0000	
2.150	4.650	2.191	-17.507	-1.0926	0.0000	
2.150	4.700	2.192	-17.428	-1.0599	0.0000	
2.150	4.750	2.193	-17.340	-1.0310	0.0000	
2.150	4.800	2.196	-17.241	-1.0056	0.0000	
2.150	4.850	2.203	-17.143	-0.9832	0.0000	
2.150	4.900	2.213	-17.067	-0.9637	0.0000	
2.150	4.950	2.221	-17.026	-0.9466	0.0000	
2.150	5.000	2.226	-17.013	-0.9318	0.0000	
2.200	3.700	2.205	-19.525	-3.6117	0.0000	
2.200	3.750	2.207	-19.458	-3.3006	0.0000	
2.200	3.800	2.209	-19.372	-3.0232	0.0000	
2.200	3.850	2.212	-19.269	-2.7760	0.0000	
2.200	3.900	2.214	-19.150	-2.5559	0.0000	
2.200	3.950	2.215	-19.020	-2.3600	0.0000	
2.200	4.000	2.217	-18.879	-2.1856	0.0000	
2.200	4.050	2.219	-18.725	-2.0303	0.0000	
2.200	4.100	2.221	-18.557	-1.8921	0.0000	
2.200	4.150	2.222	-18.375	-1.7687	0.0000	
2.200	4.200	2.224	-18.184	-1.6590	0.0000	
2.200	4.250	2.226	-18.001	-1.5614	0.0000	
2.200	4.300	2.228	-17.842	-1.4750	0.0000	
2.200	4.350	2.231	-17.727	-1.3986	0.0000	
2.200	4.400	2.234	-17.661	-1.3308	0.0000	
2.200	4.450	2.236	-17.624	-1.2713	0.0000	
2.200	4.500	2.238	-17.588	-1.2184	0.0000	
2.200	4.550	2.239	-17.540	-1.1713	0.0000	
2.200	4.600	2.241	-17.479	-1.1295	0.0000	
2.200	4.650	2.241	-17.407	-1.0925	0.0000	
2.200	4.700	2.242	-17.328	-1.0598	0.0000	
2.200	4.750	2.243	-17.240	-1.0310	0.0000	
2.200	4.800	2.246	-17.142	-1.0055	0.0000	
2.200	4.850	2.253	-17.043	-0.9832	0.0000	
2.200	4.900	2.263	-16.967	-0.9637	0.0000	
2.200	4.950	2.271	-16.926	-0.9466	0.0000	
2.200	5.000	2.276	-16.912	-0.9318	0.0000	
2.250	3.700	2.255	-19.432	-3.6117	0.0000	
2.250	3.750	2.257	-19.364	-3.3005	0.0000	
2.250	3.800	2.259	-19.277	-3.0232	0.0000	
2.250	3.850	2.262	-19.173	-2.7760	0.0000	
2.250	3.900	2.264	-19.053	-2.5559	0.0000	
2.250	3.950	2.265	-18.922	-2.3600	0.0000	
2.250	4.000	2.267	-18.780	-2.1856	0.0000	
2.250	4.050	2.269	-18.626	-2.0303	0.0000	
2.250	4.100	2.271	-18.458	-1.8920	0.0000	
2.250	4.150	2.272	-18.275	-1.7687	0.0000	
2.250	4.200	2.274	-18.085	-1.6589	0.0000	
2.250	4.250	2.276	-17.901	-1.5614	0.0000	
2.250	4.300	2.278	-17.742	-1.4750	0.0000	
2.250	4.350	2.281	-17.627	-1.3986	0.0000	
2.250	4.400	2.284	-17.561	-1.3308	0.0000	
2.250	4.450	2.286	-17.524	-1.2713	0.0000	
2.250	4.500	2.288	-17.489	-1.2183	0.0000	
2.250	4.550	2.289	-17.441	-1.1712	0.0000	
2.250	4.600	2.291	-17.379	-1.1295	0.0000	
2.250	4.650	2.291	-17.308	-1.0925	0.0000	
2.250	4.700	2.292	-17.228	-1.0598	0.0000	
2.250	4.750	2.293	-17.140	-1.0309	0.0000	
2.250	4.800	2.296	-17.042	-1.0055	0.0000	
2.250	4.850	2.303	-16.943	-0.9832	0.0000	
2.250	4.900	2.313	-16.867	-0.9636	0.0000	
2.250	4.950	2.321	-16.826	-0.9466	0.0000	
2.250	5.000	2.326	-16.812	-0.9318	0.0000	
2.300	3.700	2.305	-19.339	-3.6116	0.0000	
2.300	3.750	2.307	-19.270	-3.3005	0.0000	
2.300	3.800	2.309	-19.182	-3.0232	0.0000	
2.300	3.850	2.312	-19.076	-2.7760	0.0000	
2.300	3.900	2.314	-18.956	-2.5558	0.0000	
2.300	3.950	2.315	-18.824	-2.3600	0.0000	
2.300	4.000	2.317	-18.682	-2.1856	0.0000	
2.300	4.050	2.319	-18.527	-2.0302	0.0000	
2.300	4.100	2.321	-18.359	-1.8920	0.0000	
2.300	4.150	2.322	-18.176	-1.7686	0.0000	
2.300	4.200	2.324	-17.985	-1.6589	0.0000	
2.300	4.250	2.326	-17.802	-1.5614	0.0000	
2.300	4.300	2.328	-17.642	-1.4749	0.0000	
2.300	4.350	2.331	-17.527	-1.3986	0.0000	
2.300	4.400	2.334	-17.462	-1.3308	0.0000	
2.300	4.450	2.336	-17.425	-1.2712	0.0000	
2.300	4.500	2.338	-17.389	-1.2183	0.0000	
2.300	4.550	2.339	-17.341	-1.1712	0.0000	
2.300	4.600	2.341	-17.280	-1.1294	0.0000	
2.300	4.650	2.341	-17.208	-1.0924	0.0000	
2.300	4.700	2.342	-17.128	-1.0598	0.0000	
2.300	4.750	2.343	-17.040	-1.0309	0.0000	
2.300	4.800	2.346	-16.942	-1.0055	0.0000	
2.300	4.850	2.353	-16.843	-0.9832	0.0000	
2.300	4.900	2.363	-16.767	-0.9636	0.0000	
2.300	4.950	2.371	-16.726	-0.9466	0.0000	
2.300	5.000	2.376	-16.712	-0.9318	0.0000	
2.350	3.700	2.355	-19.247	-3.6115	0.0000	
2.350	3.750	2.357	-19.176	-3.3004	0.0000	
2.350	3.800	2.359	-19.087	-3.0231	0.0000	
2.350	3.850	2.362	-18.980	-2.7759	0.0000	
2.350	3.900	2.364	-18.859	-2.5558	0.0000	
2.350	3.950	2.365	-18.726	-2.3599	0.0000	
2.350	4.000	2.367	-18.583	-2.1855	0.0000	
2.350	4.050	2.369	-18.429	-2.0302	0.0000	
2.350	4.100	2.371	-18.260	-1.8919	0.0000	
2.350	4.150	2.372	-18.077	-1.7686	0.0000	
2.350	4.200	2.374	-17.886	-1.6588	0.0000	
2.350	4.250	2.376	-17.702	-1.5613	0.0000	
2.350	4.300	2.378	-17.543	-1.4749	0.0000	
2.350	4.350	2.381	-17.428	-1.3985	0.0000	
2.350	4.400	2.384	-17.362	-1.3307	0.0000	
2.350	4.450	2.386	-17.325	-1.2712	0.0000	
2.350	4.500	2.388	-17.289	-1.2182	0.0000	
2.350	4.550	2.389	-17.241	-1.1711	0.0000	
2.350	4.600	2.391	-17.180	-1.1294	0.0000	
2.350	4.650	2.391	-17.109	-1.0924	0.0000	
2.350	4.700	2.392	-17.029	-1.0597	0.0000	
2.350	4.750	2.393	-16.940	-1.0309	0.0000	
2.350	4.800	2.396	-16.842	-1.0054	0.0000	
2.350	4.850	2.403	-16.743	-0.9831	0.0000	
2.350	4.900	2.413	-16.667	-0.9636	0.0000	
2.350	4.950	2.421	-16.626	-0.9466	0.0000	
2.350	5.000	2.426	-16.612	-0.9318	0.0000	
2.400	3.700	2.405	-19.155	-3.6114	0.0000	
2.400	3.750	2.407	-19.083	-3.3004	0.0000	
2.400	3.800	2.409	-18.992	-3.0230	0.0000	
2.400	3.850	2.412	-18.884	-2.7759	0.0000	
2.400	3.900	2.414	-18.762	-2.5558	0.0000	
2.400	3.950	2.415	-18.629	-2.3599	0.0000	
2.400	4.000	2.417	-18.485	-2.1854	0.0000	
2.400	4.050	2.419	-18.330	-2.0301	0.0000	
2.400	4.100	2.421	-18.161	-1.8919	0.0000	
2.400	4.150	2.422	-17.977	-1.7685	0.0000	
2.400	4.200	2.424	-17.786	-1.6588	0.0000	
2.400	4.250	2.426	-17.602	-1.5613	0.0000	
2.400	4.300	2.428	-17.443	-1.4749	0.0000	
2.400	4.350	2.431	-17.328	-1.3985	0.0000	
2.400	4.400	2.434	-17.262	-1.3307	0.0000	
2.400	4.450	2.436	-17.225	-1.2711	0.0000	
2.400	4.500	2.438	-17.190	-1.2182	0.0000	
2.400	4.550	2.439	-17.142	-1.1711	0.0000	
2.400	4.600	2.441	-17.081	-1.1293	0.0000	
2.400	4.650	2.441	-17.009	-1.0924	0.0000	
2.400	4.700	2.442	-16.929	-1.0597	0.0000	
2.400	4.750	2.443	-16.841	-1.0308	0.0000	
2.400	4.800	2.446	-16.742	-1.0054	0.0000	
2.400	4.850	2.453	-16.643	-0.9831	0.0000	
2.400	4.900	2.463	-16.567	-0.9636	0.0000	
2.400	4.950	2.471	-16.526	-0.9466	0.0000	
2.400	5.000	2.476	-16.512	-0.9318	0.0000	
2.450	3.700	2.455	-19.063	-3.6114	0.0000	
2.450	3.750	2.457	-18.990	-3.3003	0.0000	
2.450	3.800	2.459	-18.897	-3.0230	0.0000	
2.450	3.850	2.462	-18.788	-2.7758	0.0000	
2.450	3.900	2.464	-18.665	-2.5557	0.0000	
2.450	3.950	2.465	-18.531	-2.3598	0.0000	
2.450	4.000	2.467	-18.387	-2.1854	0.0000	
2.450	4.050	2.469	-18.231	-2.0300	0.0000	
2.450	4.100	2.471	-18.062	-1.8918	0.0000	
2.450	4.150	2.472	-17.878	-1.7684	0.0000	
2.450	4.200	2.474	-17.687	-1.6587	0.0000	
2.450	4.250	2.476	-17.503	-1.5612	0.0000	
2.450	4.300	2.478	-17.343	-1.4748	0.0000	
2.450	4.350	2.481	-17.228	-1.3984	0.0000	
2.450	4.400	2.484	-17.162	-1.3306	0.0000	
2.450	4.450	2.486	-17.126	-1.2710	0.0000	
2.450	4.500	2.488	-17.090	-1.2181	0.0000	
2.450	4.550	2.489	-17.042	-1.1710	0.0000	
2.450	4.600	2.491	-16.981	-1.1293	0.0000	
2.450	4.650	2.491	-16.909	-1.0923	0.0000	
2.450	4.700	2.492	-16.830	-1.0596	0.0000	
2.450	4.750	2.493	-16.741	-1.0308	0.0000	
2.450	4.800	2.496	-16.642	-1.0054	0.0000	
2.450	4.850	2.503	-16.543	-0.9831	0.0000	
2.450	4.900	2.513	-16.467	-0.9636	0.0000	
2.450	4.950	2.521	-16.426	-0.9466	0.0000	
2.450	5.000	2.526	-16.412	-0.9318	0.0000	
2.500	3.700	2.505	-18.972	-3.6113	0.0000	
2.500	3.750	2.507	-18.897	-3.3002	0.0000	
2.500	3.800	2.509	-18.803	-3.0229	0.0000	
2.500	3.850	2.512	-18.693	-2.7757	0.0000	
2.500	3.900	2.514	-18.569	-2.5556	0.0000	
2.500	3.950	2.515	-18.434	-2.3598	0.0000	
2.500	4.000	2.517	-18.289	-2.1853	0.0000	
2.500	4.050	2.519	-18.133	-2.0300	0.0000	
2.500	4.100	2.521	-17.963	-1.8917	0.0000	
2.500	4.150	2.522	-17.779	-1.7684	0.0000	
2.500	4.200	2.524	-17.587	-1.6587	0.0000	
2.500	4.250	2.526	-17.403	-1.5612	0.0000	
2.500	4.300	2.528	-17.244	-1.4747	0.0000	
2.500	4.350	2.531	-17.128	-1.3983	0.0000	
2.500	4.400	2.534	-17.063	-1.3305	0.0000	
2.500	4.450	2.536	-17.026	-1.2710	0.0000	
2.500	4.500	2.538	-16.990	-1.2181	0.0000	
2.500	4.550	2.539	-16.943	-1.1709	0.0000	
2.500	4.600	2.541	-16.882	-1.1292	0.0000	
2.500	4.650	2.541	-16.810	-1.0922	0.0000	
2.500	4.700	2.542	-16.730	-1.0596	0.0000	
2.500	4.750	2.543	-16.641	-1.0307	0.0000	
2.500	4.800	2.546	-16.542	-1.0053	0.0000	
2.500	4.850	2.553	-16.443	-0.9830	0.0000	
2.500	4.900	2.563	-16.367	-0.9635	0.0000	
2.500	4.950	2.571	-16.326	-0.9466	0.0000	
2.500	5.000	2.576	-16.312	-0.9318	0.0000	
2.550	3.700	2.555	-18.880	-3.6112	0.0000	
2.550	3.750	2.557	-18.804	-3.3001	0.0000	
2.550	3.800	2.559	-18.709	-3.0228	0.0000	
2.550	3.850	2.562	-18.597	-2.7757	0.0000	
2.550	3.900	2.564	-18.472	-2.5556	0.0000	
2.550	3.950	2.565	-18.336	-2.3597	0.0000	
2.550	4.000	2.567	-18.191	-2.1852	0.0000	
2.550	4.050	2.569	-18.035	-2.0299	0.0000	
2.550	4.100	2.571	-17.864	-1.8916	0.0000	
2.550	4.150	2.572	-17.680	-1.7683	0.0000	
2.550	4.200	2.574	-17.488	-1.6586	0.0000	
2.550	4.250	2.576	-17.304	-1.5611	0.0000	
2.550	4.300	2.578	-17.144	-1.4747	0.0000	
2.550	4.350	2.581	-17.029	-1.3983	0.0000	
2.550	4.400	2.584	-16.963	-1.3305	0.0000	
2.550	4.450	2.586	-16.926	-1.2709	0.0000	
2.550	4.500	2.588	-16.891	-1.2180	0.0000	
2.550	4.550	2.589	-16.843	-1.1709	0.0000	
2.550	4.600	2.591	-16.782	-1.1291	0.0000	
2.550	4.650	2.591	-16.711	-1.0922	0.0000	
2.550	4.700	2.592	-16.630	-1.0595	0.0000	
2.550	4.750	2.593	-16.541	-1.0307	0.0000	
2.550	4.800	2.596	-16.443	-1.0053	0.0000	
2.550	4.850	2.603	-16.343	-0.9830	0.0000	
2.550	4.900	2.613	-16.267	-0.9635	0.0000	
2.550	4.950	2.621	-16.226	-0.9465	0.0000	
2.550	5.000	2.626	-16.212	-0.9318	0.0000	
2.600	3.700	2.605	-18.790	-3.6110	0.0000	
2.600	3.750	2.607	-18.712	-3.3000	0.0000	
2.600	3.800	2.609	-18.615	-3.0227	0.0000	
2.600	3.850	2.612	-18.502	-2.7756	0.0000	
2.600	3.900	2.614	-18.376	-2.5555	0.0000	
2.600	3.950	2.615	-18.239	-2.3596	0.0000	
2.600	4.000	2.617	-18.093	-2.1851	0.0000	
2.600	4.050	2.619	-17.936	-2.0298	0.0000	
2.600	4.100	2.621	-17.766	-1.8915	0.0000	
2.600	4.150	2.622	-17.581	-1.7682	0.0000	
2.600	4.200	2.624	-17.389	-1.6585	0.0000	
2.600	4.250	2.626	-17.204	-1.5610	0.0000	
2.600	4.300	2.628	-17.045	-1.4746	0.0000	
2.600	4.350	2.631	-16.929	-1.3982	0.0000	
2.600	4.400	2.634	-16.864	-1.3304	0.0000	
2.600	4.450	2.636	-16.827	-1.2708	0.0000	
2.600	4.500	2.638	-16.791	-1.2179	0.0000	
2.600	4.550	2.640	-16.744	-1.1708	0.0000	
2.600	4.600	2.641	-16.683	-1.1291	0.0000	
2.600	4.650	2.641	-16.611	-1.0921	0.0000	
2.600	4.700	2.642	-16.531	-1.0594	0.0000	
2.600	4.750	2.643	-16.442	-1.0306	0.0000	
2.600	4.800	2.646	-16.343	-1.0052	0.0000	
2.600	4.850	2.653	-16.243	-0.9830	0.0000	
2.600	4.900	2.663	-16.167	-0.9635	0.0000	
2.600	4.950	2.671	-16.126	-0.9465	0.0000	
2.600	5.000	2.676	-16.112	-0.9318	0.0000	
2.650	3.700	2.655	-18.699	-3.6109	0.0000	
2.650	3.750	2.657	-18.619	-3.2999	0.0000	
2.650	3.800	2.659	-18.521	-3.0226	0.0000	
2.650	3.850	2.662	-18.407	-2.7755	0.0000	
2.650	3.900	2.664	-18.280	-2.5554	0.0000	
2.650	3.950	2.665	-18.142	-2.3595	0.0000	
2.650	4.000	2.667	-17.996	-2.1850	0.0000	
2.650	4.050	2.669	-17.838	-2.0297	0.0000	
2.650	4.100	2.671	-17.667	-1.8914	0.0000	
2.650	4.150	2.672	-17.482	-1.7681	0.0000	
2.650	4.200	2.674	-17.290	-1.6584	0.0000	
2.650	4.250	2.676	-17.105	-1.5609	0.0000	
2.650	4.300	2.678	-16.945	-1.4745	0.0000	
2.650	4.350	2.681	-16.830	-1.3981	0.0000	
2.650	4.400	2.684	-16.764	-1.3303	0.0000	
2.650	4.450	2.686	-16.727	-1.2707	0.0000	
2.650	4.500	2.688	-16.692	-1.2178	0.0000	
2.650	4.550	2.690	-16.645	-1.1707	0.0000	
2.650	4.600	2.691	-16.584	-1.1290	0.0000	
2.650	4.650	2.691	-16.512	-1.0920	0.0000	
2.650	4.700	2.692	-16.431	-1.0594	0.0000	
2.650	4.750	2.693	-16.342	-1.0306	0.0000	
2.650	4.800	2.696	-16.243	-1.0052	0.0000	
2.650	4.850	2.703	-16.143	-0.9829	0.0000	
2.650	4.900	2.713	-16.067	-0.9634	0.0000	
2.650	4.950	2.721	-16.026	-0.9465	0.0000	
2.650	5.000	2.726	-16.012	-0.9318	0.0000	
2.700	3.700	2.705	-18.609	-3.6108	0.0000	
2.700	3.750	2.707	-18.527	-3.2997	0.0000	
2.700	3.800	2.709	-18.428	-3.0225	0.0000	
2.700	3.850	2.712	-18.312	-2.7754	0.0000	
2.700	3.900	2.714	-18.184	-2.5553	0.0000	
2.700	3.950	2.715	-18.045	-2.3594	0.0000	
2.700	4.000	2.717	-17.898	-2.1849	0.0000	
2.700	4.050	2.719	-17.740	-2.0296	0.0000	
2.700	4.100	2.721	-17.569	-1.8913	0.0000	
2.700	4.150	2.722	-17.383	-1.7680	0.0000	
2.700	4.200	2.724	-17.191	-1.6583	0.0000	
2.700	4.250	2.726	-17.006	-1.5608	0.0000	
2.700	4.300	2.728	-16.846	-1.4744	0.0000	
2.700	4.350	2.731	-16.730	-1.3980	0.0000	
2.700	4.400	2.734	-16.665	-1.3302	0.0000	
2.700	4.450	2.736	-16.628	-1.2706	0.0000	
2.700	4.500	2.738	-16.593	-1.2177	0.0000	
2.700	4.550	2.740	-16.545	-1.1706	0.0000	
2.700	4.600	2.741	-16.485	-1.1289	0.0000	
2.700	4.650	2.741	-16.413	-1.0920	0.0000	
2.700	4.700	2.742	-16.332	-1.0593	0.0000	
2.700	4.750	2.743	-16.243	-1.0305	0.0000	
2.700	4.800	2.746	-16.143	-1.0051	0.0000	
2.700	4.850	2.753	-16.043	-0.9829	0.0000	
2.700	4.900	2.763	-15.967	-0.9634	0.0000	
2.700	4.950	2.771	-15.926	-0.9465	0.0000	
2.700	5.000	2.776	-15.912	-0.9318	0.0000	
2.750	3.700	2.755	-18.519	-3.6106	0.0000	
2.750	3.750	2.757	-18.436	-3.2996	0.0000	
2.750	3.800	2.759	-18.334	-3.0224	0.0000	
2.750	3.850	2.762	-18.217	-2.7753	0.0000	
2.750	3.900	2.764	-18.088	-2.5552	0.0000	
2.750	3.950	2.765	-17.949	-2.3593	0.0000	
2.750	4.000	2.767	-17.801	-2.1848	0.0000	
2.750	4.050	2.769	-17.642	-2.0295	0.0000	
2.750	4.100	2.771	-17.470	-1.8912	0.0000	
2.750	4.150	2.772	-17.285	-1.7679	0.0000	
2.750	4.200	2.774	-17.092	-1.6582	0.0000	
2.750	4.250	2.776	-16.907	-1.5607	0.0000	
2.750	4.300	2.778	-16.746	-1.4743	0.0000	
2.750	4.350	2.781	-16.631	-1.3979	0.0000	
2.750	4.400	2.784	-16.565	-1.3301	0.0000	
2.750	4.450	2.786	-16.528	-1.2705	0.0000	
2.750	4.500	2.788	-16.493	-1.2176	0.0000	
2.750	4.550	2.790	-16.446	-1.1705	0.0000	
2.750	4.600	2.791	-16.385	-1.1288	0.0000	
2.750	4.650	2.791	-16.313	-1.0919	0.0000	
2.750	4.700	2.792	-16.233	-1.0592	0.0000	
2.750	4.750	2.793	-16.143	-1.0304	0.0000	
2.750	4.800	2.796	-16.043	-1.0050	0.0000	
2.750	4.850	2.803	-15.944	-0.9828	0.0000	
2.750	4.900	2.813	-15.867	-0.9633	0.0000	
2.750	4.950	2.821	-15.826	-0.9464	0.0000	
2.750	5.000	2.826	-15.812	-0.9317	0.0000	
2.800	3.700	2.805	-18.429	-3.6104	0.0000	
2.800	3.750	2.807	-18.344	-3.2994	0.0000	
2.800	3.800	2.809	-18.241	-3.0222	0.0000	
2.800	3.850	2.812	-18.123	-2.7751	0.0000	
2.800	3.900	2.814	-17.992	-2.5550	0.0000	
2.800	3.950	2.815	-17.852	-2.3591	0.0000	
2.800	4.000	2.817	-17.704	-2.1847	0.0000	
2.800	4.050	2.819	-17.545	-2.0293	0.0000	
2.800	4.100	2.821	-17.372	-1.8910	0.0000	
2.800	4.150	2.822	-17.186	-1.7677	0.0000	
2.800	4.200	2.824	-16.993	-1.6581	0.0000	
2.800	4.250	2.826	-16.807	-1.5606	0.0000	
2.800	4.300	2.828	-16.647	-1.4742	0.0000	
2.800	4.350	2.831	-16.531	-1.3978	0.0000	
2.800	4.400	2.834	-16.466	-1.3300	0.0000	
2.800	4.450	2.836	-16.429	-1.2704	0.0000	
2.800	4.500	2.838	-16.394	-1.2175	0.0000	
2.800	4.550	2.840	-16.347	-1.1704	0.0000	
2.800	4.600	2.841	-16.286	-1.1287	0.0000	
2.800	4.650	2.841	-16.214	-1.0918	0.0000	
2.800	4.700	2.842	-16.133	-1.0591	0.0000	
2.800	4.750	2.843	-16.043	-1.0303	0.0000	
2.800	4.800	2.846	-15.944	-1.0050	0.0000	
2.800	4.850	2.853	-15.844	-0.9827	0.0000	
2.800	4.900	2.863	-15.767	-0.9633	0.0000	
2.800	4.950	2.871	-15.726	-0.9464	0.0000	
2.800	5.000	2.876	-15.712	-0.9317	0.0000	
2.850	3.700	2.855	-18.339	-3.6103	0.0000	
2.850	3.750	2.857	-18.253	-3.2993	0.0000	
2.850	3.800	2.859	-18.148	-3.0220	0.0000	
2.850	3.850	2.862	-18.028	-2.7750	0.0000	
2.850	3.900	2.864	-17.897	-2.5549	0.0000	
2.850	3.950	2.865	-17.756	-2.3590	0.0000	
2.850	4.000	2.867	-17.607	-2.1845	0.0000	
2.850	4.050	2.869	-17.447	-2.0292	0.0000	
2.850	4.100	2.871	-17.274	-1.8909	0.0000	
2.850	4.150	2.872	-17.087	-1.7676	0.0000	
2.850	4.200	2.874	-16.894	-1.6579	0.0000	
2.850	4.250	2.876	-16.708	-1.5605	0.0000	
2.850	4.300	2.878	-16.548	-1.4741	0.0000	
2.850	4.350	2.881	-16.432	-1.3977	0.0000	
2.850	4.400	2.884	-16.366	-1.3299	0.0000	
2.850	4.450	2.886	-16.330	-1.2703	0.0000	
2.850	4.500	2.888	-16.295	-1.2174	0.0000	
2.850	4.550	2.890	-16.248	-1.1703	0.0000	
2.850	4.600	2.891	-16.187	-1.1286	0.0000	
2.850	4.650	2.891	-16.115	-1.0917	0.0000	
2.850	4.700	2.892	-16.034	-1.0590	0.0000	
2.850	4.750	2.893	-15.944	-1.0302	0.0000	
2.850	4.800	2.896	-15.844	-1.0049	0.0000	
2.850	4.850	2.903	-15.744	-0.9826	0.0000	
2.850	4.900	2.913	-15.667	-0.9632	0.0000	
2.850	4.950	2.921	-15.626	-0.9463	0.0000	
2.850	5.000	2.926	-15.612	-0.9317	0.0000	
2.900	3.700	2.905	-18.249	-3.6100	0.0000	
2.900	3.750	2.907	-18.161	-3.2990	0.0000	
2.900	3.800	2.909	-18.055	-3.0218	0.0000	
2.900	3.850	2.912	-17.934	-2.7748	0.0000	
2.900	3.900	2.914	-17.801	-2.5547	0.0000	
2.900	3.950	2.915	-17.660	-2.3588	0.0000	
2.900	4.000	2.917	-17.510	-2.1843	0.0000	
2.900	4.050	2.919	-17.350	-2.0290	0.0000	
2.900	4.100	2.921	-17.176	-1.8907	0.0000	
2.900	4.150	2.922	-16.989	-1.7674	0.0000	
2.900	4.200	2.924	-16.795	-1.6578	0.0000	
2.900	4.250	2.926	-16.609	-1.5604	0.0000	
2.900	4.300	2.928	-16.449	-1.4740	0.0000	
2.900	4.350	2.931	-16.333	-1.3976	0.0000	
2.900	4.400	2.934	-16.267	-1.3297	0.0000	
2.900	4.450	2.936	-16.230	-1.2702	0.0000	
2.900	4.500	2.938	-16.195	-1.2173	0.0000	
2.900	4.550	2.940	-16.149	-1.1702	0.0000	
2.900	4.600	2.941	-16.088	-1.1285	0.0000	
2.900	4.650	2.941	-16.016	-1.0915	0.0000	
2.900	4.700	2.942	-15.935	-1.0589	0.0000	
2.900	4.750	2.943	-15.844	-1.0301	0.0000	
2.900	4.800	2.946	-15.744	-1.0048	0.0000	
2.900	4.850	2.953	-15.644	-0.9826	0.0000	
2.900	4.900	2.963	-15.567	-0.9631	0.0000	
2.900	4.950	2.971	-15.526	-0.9463	0.0000	
2.900	5.000	2.976	-15.512	-0.9316	0.0000	
2.950	3.700	2.955	-18.160	-3.6098	0.0000	
2.950	3.750	2.957	-18.070	-3.2988	0.0000	
2.950	3.800	2.959	-17.962	-3.0216	0.0000	
2.950	3.850	2.962	-17.840	-2.7746	0.0000	
2.950	3.900	2.964	-17.706	-2.5545	0.0000	
2.950	3.950	2.965	-17.564	-2.3586	0.0000	
2.950	4.000	2.967	-17.413	-2.1841	0.0000	
2.950	4.050	2.969	-17.252	-2.0288	0.0000	
2.950	4.100	2.971	-17.078	-1.8905	0.0000	
2.950	4.150	2.972	-16.891	-1.7672	0.0000	
2.950	4.200	2.974	-16.696	-1.6576	0.0000	
2.950	4.250	2.976	-16.510	-1.5602	0.0000	
2.950	4.300	2.978	-16.349	-1.4738	0.0000	
2.950	4.350	2.981	-16.234	-1.3974	0.0000	
2.950	4.400	2.984	-16.168	-1.3296	0.0000	
2.950	4.450	2.986	-16.131	-1.2700	0.0000	
2.950	4.500	2.988	-16.096	-1.2171	0.0000	
2.950	4.550	2.990	-16.050	-1.1700	0.0000	
2.950	4.600	2.991	-15.989	-1.1283	0.0000	
2.950	4.650	2.991	-15.917	-1.0914	0.0000	
2.950	4.700	2.992	-15.835	-1.0588	0.0000	
2.950	4.750	2.993	-15.745	-1.0300	0.0000	
2.950	4.800	2.996	-15.645	-1.0047	0.0000	
2.950	4.850	3.003	-15.544	-0.9825	0.0000	
2.950	4.900	3.013	-15.467	-0.9631	0.0000	
2.950	4.950	3.021	-15.426	-0.9462	0.0000	
2.950	5.000	3.026	-15.412	-0.9316	0.0000	
3.000	3.700	3.005	-18.070	-3.6095	0.0000	
3.000	3.750	3.007	-17.979	-3.2986	0.0000	
3.000	3.800	3.009	-17.869	-3.0214	0.0000	
3.000	3.850	3.012	-17.746	-2.7743	0.0000	
3.000	3.900	3.014	-17.611	-2.5543	0.0000	
3.000	3.950	3.015	-17.468	-2.3584	0.0000	
3.000	4.000	3.017	-17.317	-2.1839	0.0000	
3.000	4.050	3.019	-17.155	-2.0286	0.0000	
3.000	4.100	3.021	-16.981	-1.8903	0.0000	
3.000	4.150	3.022	-16.793	-1.7670	0.0000	
3.000	4.200	3.024	-16.598	-1.6574	0.0000	
3.000	4.250	3.026	-16.411	-1.5600	0.0000	
3.000	4.300	3.028	-16.250	-1.4736	0.0000	
3.000	4.350	3.031	-16.134	-1.3972	0.0000	
3.000	4.400	3.034	-16.069	-1.3294	0.0000	
3.000	4.450	3.036	-16.032	-1.2699	0.0000	
3.000	4.500	3.038	-15.997	-1.2170	0.0000	
3.000	4.550	3.040	-15.951	-1.1699	0.0000	
3.000	4.600	3.041	-15.890	-1.1282	0.0000	
3.000	4.650	3.041	-15.818	-1.0913	0.0000	
3.000	4.700	3.042	-15.736	-1.0587	0.0000	
3.000	4.750	3.043	-15.645	-1.0299	0.0000	
3.000	4.800	3.046	-15.545	-1.0046	0.0000	
3.000	4.850	3.053	-15.444	-0.9823	0.0000	
3.000	4.900	3.063	-15.367	-0.9630	0.0000	
3.000	4.950	3.071	-15.326	-0.9461	0.0000	
3.000	5.000	3.076	-15.313	-0.9315	0.0000	
3.050	3.700	3.055	-17.981	-3.6093	0.0000	
3.050	3.750	3.057	-17.887	-3.2983	0.0000	
3.050	3.800	3.059	-17.777	-3.0211	0.0000	
3.050	3.850	3.062	-17.652	-2.7741	0.0000	
3.050	3.900	3.064	-17.516	-2.5540	0.0000	
3.050	3.950	3.065	-17.372	-2.3581	0.0000	
3.050	4.000	3.067	-17.220	-2.1837	0.0000	
3.050	4.050	3.069	-17.058	-2.0283	0.0000	
3.050	4.100	3.071	-16.883	-1.8901	0.0000	
3.050	4.150	3.072	-16.695	-1.7668	0.0000	
3.050	4.200	3.074	-16.499	-1.6572	0.0000	
3.050	4.250	3.076	-16.312	-1.5598	0.0000	
3.050	4.300	3.078	-16.151	-1.4734	0.0000	
3.050	4.350	3.081	-16.035	-1.3970	0.0000	
3.050	4.400	3.084	-15.969	-1.3292	0.0000	
3.050	4.450	3.086	-15.933	-1.2697	0.0000	
3.050	4.500	3.088	-15.898	-1.2168	0.0000	
3.050	4.550	3.090	-15.852	-1.1697	0.0000	
3.050	4.600	3.091	-15.791	-1.1280	0.0000	
3.050	4.650	3.091	-15.719	-1.0911	0.0000	
3.050	4.700	3.092	-15.637	-1.0585	0.0000	
3.050	4.750	3.093	-15.546	-1.0297	0.0000	
3.050	4.800	3.096	-15.445	-1.0044	0.0000	
3.050	4.850	3.103	-15.345	-0.9822	0.0000	
3.050	4.900	3.113	-15.268	-0.9628	0.0000	
3.050	4.950	3.121	-15.226	-0.9460	0.0000	
3.050	5.000	3.126	-15.213	-0.9314	0.0000	
3.100	3.700	3.105	-17.891	-3.6089	0.0000	
3.100	3.750	3.107	-17.796	-3.2980	0.0000	
3.100	3.800	3.109	-17.684	-3.0208	0.0000	
3.100	3.850	3.112	-17.558	-2.7738	0.0000	
3.100	3.900	3.114	-17.421	-2.5538	0.0000	
3.100	3.950	3.115	-17.277	-2.3579	0.0000	
3.100	4.000	3.117	-17.124	-2.1834	0.0000	
3.100	4.050	3.119	-16.962	-2.0281	0.0000	
3.100	4.100	3.121	-16.786	-1.8898	0.0000	
3.100	4.150	3.122	-16.597	-1.7666	0.0000	
3.100	4.200	3.124	-16.401	-1.6570	0.0000	
3.100	4.250	3.126	-16.214	-1.5596	0.0000	
3.100	4.300	3.128	-16.052	-1.4732	0.0000	
3.100	4.350	3.131	-15.936	-1.3968	0.0000	
3.100	4.400	3.134	-15.870	-1.3290	0.0000	
3.100	4.450	3.136	-15.834	-1.2695	0.0000	
3.100	4.500	3.138	-15.799	-1.2166	0.0000	
3.100	4.550	3.140	-15.753	-1.1695	0.0000	
3.100	4.600	3.141	-15.693	-1.1278	0.0000	
3.100	4.650	3.141	-15.620	-1.0910	0.0000	
3.100	4.700	3.142	-15.538	-1.0584	0.0000	
3.100	4.750	3.143	-15.447	-1.0296	0.0000	
3.100	4.800	3.146	-15.346	-1.0043	0.0000	
3.100	4.850	3.153	-15.245	-0.9821	0.0000	
3.100	4.900	3.163	-15.168	-0.9627	0.0000	
3.100	4.950	3.171	-15.127	-0.9459	0.0000	
3.100	5.000	3.176	-15.113	-0.9313	0.0000	
3.150	3.700	3.155	-17.801	-3.6086	0.0000	
3.150	3.750	3.157	-17.705	-3.2976	0.0000	
3.150	3.800	3.159	-17.591	-3.0205	0.0000	
3.150	3.850	3.162	-17.464	-2.7735	0.0000	
3.150	3.900	3.164	-17.327	-2.5534	0.0000	
3.150	3.950	3.165	-17.181	-2.3576	0.0000	
3.150	4.000	3.167	-17.028	-2.1831	0.0000	
3.150	4.050	3.169	-16.865	-2.0278	0.0000	
3.150	4.100	3.171	-16.689	-1.8895	0.0000	
3.150	4.150	3.172	-16.499	-1.7663	0.0000	
3.150	4.200	3.174	-16.303	-1.6567	0.0000	
3.150	4.250	3.176	-16.115	-1.5593	0.0000	
3.150	4.300	3.178	-15.953	-1.4730	0.0000	
3.150	4.350	3.181	-15.837	-1.3966	0.0000	
3.150	4.400	3.184	-15.771	-1.3288	0.0000	
3.150	4.450	3.186	-15.735	-1.2693	0.0000	
3.150	4.500	3.188	-15.701	-1.2164	0.0000	
3.150	4.550	3.190	-15.654	-1.1693	0.0000	
3.150	4.600	3.191	-15.594	-1.1277	0.0000	
3.150	4.650	3.191	-15.521	-1.0908	0.0000	
3.150	4.700	3.192	-15.439	-1.0582	0.0000	
3.150	4.750	3.193	-15.347	-1.0294	0.0000	
3.150	4.800	3.196	-15.246	-1.0041	0.0000	
3.150	4.850	3.203	-15.145	-0.9819	0.0000	
3.150	4.900	3.213	-15.068	-0.9626	0.0000	
3.150	4.950	3.221	-15.027	-0.9457	0.0000	
3.150	5.000	3.226	-15.013	-0.9312	0.0000	
3.200	3.700	3.205	-17.711	-3.6082	0.0000	
3.200	3.750	3.207	-17.614	-3.2972	0.0000	
3.200	3.800	3.209	-17.499	-3.0201	0.0000	
3.200	3.850	3.212	-17.371	-2.7731	0.0000	
3.200	3.900	3.214	-17.232	-2.5531	0.0000	
3.200	3.950	3.215	-17.086	-2.3572	0.0000	
3.200	4.000	3.217	-16.933	-2.1828	0.0000	
3.200	4.050	3.219	-16.769	-2.0274	0.0000	
3.200	4.100	3.221	-16.592	-1.8892	0.0000	
3.200	4.150	3.222	-16.401	-1.7660	0.0000	
3.200	4.200	3.224	-16.204	-1.6564	0.0000	
3.200	4.250	3.226	-16.016	-1.5591	0.0000	
3.200	4.300	3.228	-15.855	-1.4727	0.0000	
3.200	4.350	3.231	-15.738	-1.3963	0.0000	
3.200	4.400	3.234	-15.672	-1.3285	0.0000	
3.200	4.450	3.236	-15.636	-1.2690	0.0000	
3.200	4.500	3.238	-15.602	-1.2161	0.0000	
3.200	4.550	3.240	-15.556	-1.1691	0.0000	
3.200	4.600	3.241	-15.495	-1.1274	0.0000	
3.200	4.650	3.241	-15.422	-1.0906	0.0000	
3.200	4.700	3.242	-15.340	-1.0580	0.0000	
3.200	4.750	3.243	-15.248	-1.0292	0.0000	
3.200	4.800	3.246	-15.146	-1.0039	0.0000	
3.200	4.850	3.253	-15.045	-0.9818	0.0000	
3.200	4.900	3.263	-14.968	-0.9624	0.0000	
3.200	4.950	3.271	-14.927	-0.9456	0.0000	
3.200	5.000	3.276	-14.913	-0.9311	0.0000	
3.250	3.700	3.255	-17.621	-3.6077	0.0000	
3.250	3.750	3.257	-17.522	-3.2968	0.0000	
3.250	3.800	3.259	-17.406	-3.0197	0.0000	
3.250	3.850	3.262	-17.277	-2.7727	0.0000	
3.250	3.900	3.264	-17.138	-2.5527	0.0000	
3.250	3.950	3.265	-16.991	-2.3568	0.0000	
3.250	4.000	3.267	-16.837	-2.1824	0.0000	
3.250	4.050	3.269	-16.672	-2.0271	0.0000	
3.250	4.100	3.271	-16.495	-1.8888	0.0000	
3.250	4.150	3.272	-16.304	-1.7656	0.0000	
3.250	4.200	3.274	-16.106	-1.6561	0.0000	
3.250	4.250	3.276	-15.918	-1.5588	0.0000	
3.250	4.300	3.278	-15.756	-1.4724	0.0000	
3.250	4.350	3.281	-15.639	-1.3960	0.0000	
3.250	4.400	3.284	-15.573	-1.3283	0.0000	
3.250	4.450	3.286	-15.537	-1.2687	0.0000	
3.250	4.500	3.288	-15.503	-1.2159	0.0000	
3.250	4.550	3.290	-15.457	-1.1689	0.0000	
3.250	4.600	3.291	-15.397	-1.1272	0.0000	
3.250	4.650	3.291	-15.324	-1.0903	0.0000	
3.250	4.700	3.292	-15.241	-1.0578	0.0000	
3.250	4.750	3.293	-15.149	-1.0290	0.0000	
3.250	4.800	3.296	-15.047	-1.0037	0.0000	
3.250	4.850	3.303	-14.945	-0.9816	0.0000	
3.250	4.900	3.313	-14.868	-0.9622	0.0000	
3.250	4.950	3.321	-14.827	-0.9454	0.0000	
3.250	5.000	3.326	-14.813	-0.9309	0.0000	
3.300	3.700	3.305	-17.531	-3.6072	0.0000	
3.300	3.750	3.307	-17.431	-3.2963	0.0000	
3.300	3.800	3.309	-17.314	-3.0192	0.0000	
3.300	3.850	3.312	-17.184	-2.7722	0.0000	
3.300	3.900	3.314	-17.044	-2.5522	0.0000	
3.300	3.950	3.315	-16.897	-2.3564	0.0000	
3.300	4.000	3.317	-16.742	-2.1819	0.0000	
3.300	4.050	3.319	-16.576	-2.0266	0.0000	
3.300	4.100	3.321	-16.398	-1.8884	0.0000	
3.300	4.150	3.322	-16.206	-1.7652	0.0000	
3.300	4.200	3.324	-16.008	-1.6557	0.0000	
3.300	4.250	3.326	-15.820	-1.5584	0.0000	
3.300	4.300	3.328	-15.657	-1.4721	0.0000	
3.300	4.350	3.331	-15.540	-1.3957	0.0000	
3.300	4.400	3.334	-15.475	-1.3279	0.0000	
3.300	4.450	3.336	-15.438	-1.2684	0.0000	
3.300	4.500	3.338	-15.404	-1.2156	0.0000	
3.300	4.550	3.340	-15.358	-1.1686	0.0000	
3.300	4.600	3.341	-15.298	-1.1269	0.0000	
3.300	4.650	3.341	-15.225	-1.0901	0.0000	
3.300	4.700	3.342	-15.142	-1.0575	0.0000	
3.300	4.750	3.343	-15.049	-1.0288	0.0000	
3.300	4.800	3.346	-14.947	-1.0035	0.0000	
3.300	4.850	3.353	-14.846	-0.9814	0.0000	
3.300	4.900	3.363	-14.768	-0.9620	0.0000	
3.300	4.950	3.371	-14.727	-0.9452	0.0000	
3.300	5.000	3.376	-14.713	-0.9307	0.0000	
3.350	3.700	3.355	-17.441	-3.6066	0.0000	
3.350	3.750	3.357	-17.340	-3.2957	0.0000	
3.350	3.800	3.359	-17.221	-3.0187	0.0000	
3.350	3.850	3.362	-17.091	-2.7717	0.0000	
3.350	3.900	3.364	-16.950	-2.5517	0.0000	
3.350	3.950	3.365	-16.802	-2.3559	0.0000	
3.350	4.000	3.367	-16.647	-2.1815	0.0000	
3.350	4.050	3.369	-16.481	-2.0262	0.0000	
3.350	4.100	3.371	-16.302	-1.8879	0.0000	
3.350	4.150	3.372	-16.109	-1.7648	0.0000	
3.350	4.200	3.374	-15.910	-1.6553	0.0000	
3.350	4.250	3.376	-15.721	-1.5580	0.0000	
3.350	4.300	3.378	-15.558	-1.4717	0.0000	
3.350	4.350	3.381	-15.442	-1.3954	0.0000	
3.350	4.400	3.384	-15.376	-1.3276	0.0000	
3.350	4.450	3.386	-15.340	-1.2681	0.0000	
3.350	4.500	3.388	-15.306	-1.2153	0.0000	
3.350	4.550	3.390	-15.260	-1.1683	0.0000	
3.350	4.600	3.391	-15.200	-1.1266	0.0000	
3.350	4.650	3.391	-15.126	-1.0898	0.0000	
3.350	4.700	3.392	-15.043	-1.0573	0.0000	
3.350	4.750	3.393	-14.950	-1.0285	0.0000	
3.350	4.800	3.396	-14.848	-1.0033	0.0000	
3.350	4.850	3.403	-14.746	-0.9811	0.0000	
3.350	4.900	3.413	-14.668	-0.9618	0.0000	
3.350	4.950	3.421	-14.627	-0.9450	0.0000	
3.350	5.000	3.426	-14.613	-0.9305	0.0000	
3.400	3.700	3.405	-17.351	-3.6060	0.0000	
3.400	3.750	3.407	-17.248	-3.2951	0.0000	
3.400	3.800	3.409	-17.129	-3.0181	0.0000	
3.400	3.850	3.412	-16.997	-2.7711	0.0000	
3.400	3.900	3.414	-16.856	-2.5512	0.0000	
3.400	3.950	3.416	-16.708	-2.3553	0.0000	
3.400	4.000	3.417	-16.552	-2.1809	0.0000	
3.400	4.050	3.419	-16.385	-2.0256	0.0000	
3.400	4.100	3.421	-16.205	-1.8874	0.0000	
3.400	4.150	3.422	-16.012	-1.7643	0.0000	
3.400	4.200	3.424	-15.813	-1.6549	0.0000	
3.400	4.250	3.426	-15.623	-1.5576	0.0000	
3.400	4.300	3.428	-15.460	-1.4713	0.0000	
3.400	4.350	3.431	-15.343	-1.3950	0.0000	
3.400	4.400	3.434	-15.277	-1.3272	0.0000	
3.400	4.450	3.436	-15.241	-1.2677	0.0000	
3.400	4.500	3.438	-15.207	-1.2149	0.0000	
3.400	4.550	3.440	-15.161	-1.1679	0.0000	
3.400	4.600	3.441	-15.101	-1.1263	0.0000	
3.400	4.650	3.441	-15.028	-1.0895	0.0000	
3.400	4.700	3.442	-14.944	-1.0570	0.0000	
3.400	4.750	3.443	-14.851	-1.0283	0.0000	
3.400	4.800	3.446	-14.748	-1.0030	0.0000	
3.400	4.850	3.453	-14.646	-0.9809	0.0000	
3.400	4.900	3.463	-14.569	-0.9616	0.0000	
3.400	4.950	3.471	-14.527	-0.9448	0.0000	
3.400	5.000	3.476	-14.513	-0.9303	0.0000	
3.450	3.700	3.455	-17.260	-3.6053	0.0000	
3.450	3.750	3.457	-17.156	-3.2944	0.0000	
3.450	3.800	3.459	-17.036	-3.0174	0.0000	
3.450	3.850	3.462	-16.904	-2.7705	0.0000	
3.450	3.900	3.464	-16.763	-2.5505	0.0000	
3.450	3.950	3.466	-16.614	-2.3547	0.0000	
3.450	4.000	3.467	-16.457	-2.1803	0.0000	
3.450	4.050	3.469	-16.290	-2.0251	0.0000	
3.450	4.100	3.471	-16.109	-1.8869	0.0000	
3.450	4.150	3.472	-15.915	-1.7638	0.0000	
3.450	4.200	3.474	-15.715	-1.6543	0.0000	
3.450	4.250	3.476	-15.525	-1.5571	0.0000	
3.450	4.300	3.479	-15.361	-1.4708	0.0000	
3.450	4.350	3.481	-15.244	-1.3945	0.0000	
3.450	4.400	3.484	-15.178	-1.3268	0.0000	
3.450	4.450	3.486	-15.142	-1.2673	0.0000	
3.450	4.500	3.488	-15.109	-1.2145	0.0000	
3.450	4.550	3.490	-15.063	-1.1676	0.0000	
3.450	4.600	3.491	-15.003	-1.1260	0.0000	
3.450	4.650	3.492	-14.929	-1.0892	0.0000	
3.450	4.700	3.492	-14.845	-1.0566	0.0000	
3.450	4.750	3.493	-14.752	-1.0279	0.0000	
3.450	4.800	3.496	-14.649	-1.0027	0.0000	
3.450	4.850	3.503	-14.547	-0.9806	0.0000	
3.450	4.900	3.513	-14.469	-0.9613	0.0000	
3.450	4.950	3.521	-14.427	-0.9445	0.0000	
3.450	5.000	3.526	-14.413	-0.9301	0.0000	
3.500	3.700	3.505	-17.169	-3.6045	0.0000	
3.500	3.750	3.507	-17.065	-3.2937	0.0000	
3.500	3.800	3.509	-16.944	-3.0166	0.0000	
3.500	3.850	3.512	-16.811	-2.7697	0.0000	
3.500	3.900	3.514	-16.669	-2.5498	0.0000	
3.500	3.950	3.516	-16.520	-2.3540	0.0000	
3.500	4.000	3.517	-16.363	-2.1796	0.0000	
3.500	4.050	3.519	-16.194	-2.0244	0.0000	
3.500	4.100	3.521	-16.013	-1.8862	0.0000	
3.500	4.150	3.522	-15.818	-1.7632	0.0000	
3.500	4.200	3.524	-15.617	-1.6538	0.0000	
3.500	4.250	3.526	-15.427	-1.5566	0.0000	
3.500	4.300	3.529	-15.263	-1.4703	0.0000	
3.500	4.350	3.531	-15.146	-1.3940	0.0000	
3.500	4.400	3.534	-15.080	-1.3263	0.0000	
3.500	4.450	3.536	-15.044	-1.2669	0.0000	
3.500	4.500	3.538	-15.010	-1.2141	0.0000	
3.500	4.550	3.540	-14.965	-1.1671	0.0000	
3.500	4.600	3.541	-14.905	-1.1256	0.0000	
3.500	4.650	3.542	-14.831	-1.0888	0.0000	
3.500	4.700	3.542	-14.746	-1.0563	0.0000	
3.500	4.750	3.543	-14.653	-1.0276	0.0000	
3.500	4.800	3.546	-14.549	-1.0024	0.0000	
3.500	4.850	3.553	-14.447	-0.9803	0.0000	
3.500	4.900	3.563	-14.369	-0.9610	0.0000	
3.500	4.950	3.571	-14.327	-0.9442	0.0000	
3.500	5.000	3.576	-14.313	-0.9298	0.0000	
3.550	3.700	3.555	-17.078	-3.6036	0.0000	
3.550	3.750	3.557	-16.973	-3.2928	0.0000	
3.550	3.800	3.559	-16.852	-3.0158	0.0000	
3.550	3.850	3.562	-16.718	-2.7689	0.0000	
3.550	3.900	3.564	-16.576	-2.5490	0.0000	
3.550	3.950	3.566	-16.426	-2.3532	0.0000	
3.550	4.000	3.567	-16.268	-2.1789	0.0000	
3.550	4.050	3.569	-16.099	-2.0237	0.0000	
3.550	4.100	3.571	-15.917	-1.8855	0.0000	
3.550	4.150	3.572	-15.721	-1.7625	0.0000	
3.550	4.200	3.574	-15.520	-1.6531	0.0000	
3.550	4.250	3.576	-15.329	-1.5559	0.0000	
3.550	4.300	3.579	-15.164	-1.4697	0.0000	
3.550	4.350	3.581	-15.047	-1.3935	0.0000	
3.550	4.400	3.584	-14.981	-1.3258	0.0000	
3.550	4.450	3.586	-14.945	-1.2664	0.0000	
3.550	4.500	3.588	-14.912	-1.2136	0.0000	
3.550	4.550	3.590	-14.866	-1.1667	0.0000	
3.550	4.600	3.591	-14.806	-1.1251	0.0000	
3.550	4.650	3.592	-14.732	-1.0884	0.0000	
3.550	4.700	3.592	-14.648	-1.0559	0.0000	
3.550	4.750	3.593	-14.553	-1.0272	0.0000	
3.550	4.800	3.596	-14.450	-1.0020	0.0000	
3.550	4.850	3.603	-14.347	-0.9799	0.0000	
3.550	4.900	3.613	-14.269	-0.9606	0.0000	
3.550	4.950	3.621	-14.228	-0.9439	0.0000	
3.550	5.000	3.626	-14.214	-0.9294	0.0000	
3.600	3.700	3.605	-16.987	-3.6026	0.0000	
3.600	3.750	3.607	-16.881	-3.2918	0.0000	
3.600	3.800	3.609	-16.759	-3.0148	0.0000	
3.600	3.850	3.612	-16.626	-2.7680	0.0000	
3.600	3.900	3.614	-16.483	-2.5481	0.0000	
3.600	3.950	3.616	-16.333	-2.3524	0.0000	
3.600	4.000	3.617	-16.174	-2.1780	0.0000	
3.600	4.050	3.619	-16.005	-2.0229	0.0000	
3.600	4.100	3.621	-15.821	-1.8848	0.0000	
3.600	4.150	3.622	-15.625	-1.7618	0.0000	
3.600	4.200	3.624	-15.423	-1.6524	0.0000	
3.600	4.250	3.626	-15.231	-1.5553	0.0000	
3.600	4.300	3.629	-15.066	-1.4691	0.0000	
3.600	4.350	3.631	-14.948	-1.3928	0.0000	
3.600	4.400	3.634	-14.883	-1.3252	0.0000	
3.600	4.450	3.637	-14.847	-1.2658	0.0000	
3.600	4.500	3.638	-14.814	-1.2131	0.0000	
3.600	4.550	3.640	-14.768	-1.1662	0.0000	
3.600	4.600	3.641	-14.708	-1.1246	0.0000	
3.600	4.650	3.642	-14.634	-1.0879	0.0000	
3.600	4.700	3.642	-14.549	-1.0554	0.0000	
3.600	4.750	3.643	-14.454	-1.0268	0.0000	
3.600	4.800	3.646	-14.350	-1.0016	0.0000	
3.600	4.850	3.653	-14.248	-0.9795	0.0000	
3.600	4.900	3.663	-14.169	-0.9602	0.0000	
3.600	4.950	3.671	-14.128	-0.9435	0.0000	
3.600	5.000	3.676	-14.114	-0.9291	0.0000	
3.650	3.700	3.655	-16.896	-3.6015	0.0000	
3.650	3.750	3.657	-16.789	-3.2907	0.0000	
3.650	3.800	3.659	-16.667	-3.0138	0.0000	
3.650	3.850	3.662	-16.533	-2.7669	0.0000	
3.650	3.900	3.664	-16.390	-2.5471	0.0000	
3.650	3.950	3.666	-16.239	-2.3514	0.0000	
3.650	4.000	3.667	-16.080	-2.1771	0.0000	
3.650	4.050	3.669	-15.910	-2.0220	0.0000	
3.650	4.100	3.671	-15.726	-1.8839	0.0000	
3.650	4.150	3.672	-15.528	-1.7609	0.0000	
3.650	4.200	3.674	-15.325	-1.6516	0.0000	
3.650	4.250	3.676	-15.133	-1.5545	0.0000	
3.650	4.300	3.679	-14.968	-1.4683	0.0000	
3.650	4.350	3.681	-14.850	-1.3921	0.0000	
3.650	4.400	3.684	-14.784	-1.3245	0.0000	
3.650	4.450	3.687	-14.749	-1.2652	0.0000	
3.650	4.500	3.688	-14.715	-1.2125	0.0000	
3.650	4.550	3.690	-14.670	-1.1656	0.0000	
3.650	4.600	3.691	-14.610	-1.1241	0.0000	
3.650	4.650	3.692	-14.535	-1.0874	0.0000	
3.650	4.700	3.692	-14.450	-1.0549	0.0000	
3.650	4.750	3.693	-14.355	-1.0263	0.0000	
3.650	4.800	3.696	-14.251	-1.0011	0.0000	
3.650	4.850	3.703	-14.148	-0.9791	0.0000	
3.650	4.900	3.713	-14.070	-0.9598	0.0000	
3.650	4.950	3.721	-14.028	-0.9431	0.0000	
3.650	5.000	3.726	-14.014	-0.9287	0.0000	
3.700	3.700	3.705	-16.805	-3.6002	0.0000	
3.700	3.750	3.707	-16.697	-3.2895	0.0000	
3.700	3.800	3.709	-16.575	-3.0126	0.0000	
3.700	3.850	3.712	-16.441	-2.7658	0.0000	
3.700	3.900	3.714	-16.297	-2.5460	0.0000	
3.700	3.950	3.716	-16.146	-2.3503	0.0000	
3.700	4.000	3.717	-15.987	-2.1760	0.0000	
3.700	4.050	3.719	-15.816	-2.0209	0.0000	
3.700	4.100	3.721	-15.630	-1.8829	0.0000	
3.700	4.150	3.722	-15.432	-1.7600	0.0000	
3.700	4.200	3.724	-15.228	-1.6507	0.0000	
3.700	4.250	3.726	-15.035	-1.5537	0.0000	
3.700	4.300	3.729	-14.869	-1.4675	0.0000	
3.700	4.350	3.731	-14.751	-1.3914	0.0000	
3.700	4.400	3.734	-14.686	-1.3238	0.0000	
3.700	4.450	3.737	-14.650	-1.2645	0.0000	
3.700	4.500	3.738	-14.617	-1.2118	0.0000	
3.700	4.550	3.740	-14.572	-1.1650	0.0000	
3.700	4.600	3.741	-14.512	-1.1235	0.0000	
3.700	4.650	3.742	-14.437	-1.0868	0.0000	
3.700	4.700	3.742	-14.351	-1.0544	0.0000	
3.700	4.750	3.743	-14.256	-1.0258	0.0000	
3.700	4.800	3.746	-14.152	-1.0006	0.0000	
3.700	4.850	3.753	-14.048	-0.9786	0.0000	
3.700	4.900	3.763	-13.970	-0.9593	0.0000	
3.700	4.950	3.771	-13.928	-0.9426	0.0000	
3.700	5.000	3.776	-13.914	-0.9282	0.0000	
3.750	3.700	3.755	-16.713	-3.5988	0.0000	
3.750	3.750	3.757	-16.605	-3.2882	0.0000	
3.750	3.800	3.759	-16.482	-3.0113	0.0000	
3.750	3.850	3.762	-16.348	-2.7645	0.0000	
3.750	3.900	3.764	-16.205	-2.5447	0.0000	
3.750	3.950	3.766	-16.053	-2.3491	0.0000	
3.750	4.000	3.767	-15.893	-2.1748	0.0000	
3.750	4.050	3.769	-15.721	-2.0198	0.0000	
3.750	4.100	3.771	-15.535	-1.8818	0.0000	
3.750	4.150	3.772	-15.336	-1.7590	0.0000	
3.750	4.200	3.774	-15.131	-1.6497	0.0000	
3.750	4.250	3.776	-14.937	-1.5527	0.0000	
3.750	4.300	3.779	-14.771	-1.4666	0.0000	
3.750	4.350	3.781	-14.653	-1.3905	0.0000	
3.750	4.400	3.784	-14.587	-1.3230	0.0000	
3.750	4.450	3.787	-14.552	-1.2637	0.0000	
3.750	4.500	3.788	-14.519	-1.2111	0.0000	
3.750	4.550	3.790	-14.474	-1.1642	0.0000	
3.750	4.600	3.791	-14.413	-1.1228	0.0000	
3.750	4.650	3.792	-14.339	-1.0861	0.0000	
3.750	4.700	3.792	-14.253	-1.0537	0.0000	
3.750	4.750	3.793	-14.157	-1.0252	0.0000	
3.750	4.800	3.796	-14.052	-1.0001	0.0000	
3.750	4.850	3.803	-13.949	-0.9780	0.0000	
3.750	4.900	3.813	-13.870	-0.9588	0.0000	
3.750	4.950	3.821	-13.828	-0.9421	0.0000	
3.750	5.000	3.826	-13.814	-0.9277	0.0000	
3.800	3.700	3.805	-16.621	-3.5972	0.0000	
3.800	3.750	3.807	-16.513	-3.2866	0.0000	
3.800	3.800	3.809	-16.390	-3.0098	0.0000	
3.800	3.850	3.812	-16.256	-2.7630	0.0000	
3.800	3.900	3.814	-16.112	-2.5433	0.0000	
3.800	3.950	3.816	-15.960	-2.3477	0.0000	
3.800	4.000	3.817	-15.800	-2.1735	0.0000	
3.800	4.050	3.819	-15.627	-2.0185	0.0000	
3.800	4.100	3.821	-15.440	-1.8806	0.0000	
3.800	4.150	3.822	-15.239	-1.7578	0.0000	
3.800	4.200	3.824	-15.034	-1.6486	0.0000	
3.800	4.250	3.826	-14.839	-1.5516	0.0000	
3.800	4.300	3.829	-14.673	-1.4656	0.0000	
3.800	4.350	3.831	-14.555	-1.3895	0.0000	
3.800	4.400	3.834	-14.489	-1.3220	0.0000	
3.800	4.450	3.837	-14.453	-1.2628	0.0000	
3.800	4.500	3.838	-14.420	-1.2102	0.0000	
3.800	4.550	3.840	-14.376	-1.1634	0.0000	
3.800	4.600	3.841	-14.315	-1.1220	0.0000	
3.800	4.650	3.842	-14.240	-1.0854	0.0000	
3.800	4.700	3.842	-14.154	-1.0530	0.0000	
3.800	4.750	3.843	-14.058	-1.0245	0.0000	
3.800	4.800	3.846	-13.953	-0.9994	0.0000	
3.800	4.850	3.853	-13.849	-0.9774	0.0000	
3.800	4.900	3.863	-13.770	-0.9581	0.0000	
3.800	4.950	3.871	-13.728	-0.9415	0.0000	
3.800	5.000	3.876	-13.714	-0.9271	0.0000	
3.850	3.700	3.855	-16.529	-3.5955	0.0000	
3.850	3.750	3.857	-16.421	-3.2849	0.0000	
3.850	3.800	3.859	-16.298	-3.0081	0.0000	
3.850	3.850	3.862	-16.163	-2.7614	0.0000	
3.850	3.900	3.864	-16.020	-2.5417	0.0000	
3.850	3.950	3.866	-15.868	-2.3462	0.0000	
3.850	4.000	3.867	-15.706	-2.1720	0.0000	
3.850	4.050	3.869	-15.533	-2.0171	0.0000	
3.850	4.100	3.871	-15.345	-1.8792	0.0000	
3.850	4.150	3.872	-15.143	-1.7565	0.0000	
3.850	4.200	3.874	-14.937	-1.6474	0.0000	
3.850	4.250	3.876	-14.741	-1.5505	0.0000	
3.850	4.300	3.879	-14.575	-1.4645	0.0000	
3.850	4.350	3.881	-14.456	-1.3885	0.0000	
3.850	4.400	3.884	-14.390	-1.3210	0.0000	
3.850	4.450	3.887	-14.355	-1.2618	0.0000	
3.850	4.500	3.888	-14.322	-1.2093	0.0000	
3.850	4.550	3.890	-14.277	-1.1626	0.0000	
3.850	4.600	3.891	-14.217	-1.1212	0.0000	
3.850	4.650	3.892	-14.142	-1.0846	0.0000	
3.850	4.700	3.892	-14.055	-1.0523	0.0000	
3.850	4.750	3.893	-13.959	-1.0238	0.0000	
3.850	4.800	3.896	-13.853	-0.9987	0.0000	
3.850	4.850	3.903	-13.749	-0.9767	0.0000	
3.850	4.900	3.913	-13.671	-0.9575	0.0000	
3.850	4.950	3.921	-13.629	-0.9408	0.0000	
3.850	5.000	3.926	-13.615	-0.9265	0.0000	
3.900	3.700	3.905	-16.437	-3.5935	0.0000	
3.900	3.750	3.907	-16.329	-3.2830	0.0000	
3.900	3.800	3.909	-16.205	-3.0063	0.0000	
3.900	3.850	3.912	-16.071	-2.7596	0.0000	
3.900	3.900	3.914	-15.927	-2.5400	0.0000	
3.900	3.950	3.916	-15.775	-2.3445	0.0000	
3.900	4.000	3.917	-15.613	-2.1704	0.0000	
3.900	4.050	3.919	-15.439	-2.0155	0.0000	
3.900	4.100	3.921	-15.250	-1.8777	0.0000	
3.900	4.150	3.922	-15.047	-1.7550	0.0000	
3.900	4.200	3.924	-14.840	-1.6460	0.0000	
3.900	4.250	3.926	-14.644	-1.5491	0.0000	
3.900	4.300	3.929	-14.477	-1.4632	0.0000	
3.900	4.350	3.931	-14.358	-1.3872	0.0000	
3.900	4.400	3.934	-14.292	-1.3199	0.0000	
3.900	4.450	3.937	-14.257	-1.2607	0.0000	
3.900	4.500	3.939	-14.224	-1.2083	0.0000	
3.900	4.550	3.940	-14.179	-1.1616	0.0000	
3.900	4.600	3.941	-14.119	-1.1202	0.0000	
3.900	4.650	3.942	-14.043	-1.0837	0.0000	
3.900	4.700	3.942	-13.956	-1.0514	0.0000	
3.900	4.750	3.943	-13.860	-1.0230	0.0000	
3.900	4.800	3.946	-13.754	-0.9979	0.0000	
3.900	4.850	3.953	-13.650	-0.9759	0.0000	
3.900	4.900	3.963	-13.571	-0.9567	0.0000	
3.900	4.950	3.971	-13.529	-0.9401	0.0000	
3.900	5.000	3.976	-13.515	-0.9257	0.0000	
3.950	3.700	3.955	-16.344	-3.5914	0.0000	
3.950	3.750	3.957	-16.236	-3.2809	0.0000	
3.950	3.800	3.959	-16.113	-3.0042	0.0000	
3.950	3.850	3.962	-15.979	-2.7576	0.0000	
3.950	3.900	3.964	-15.835	-2.5380	0.0000	
3.950	3.950	3.966	-15.682	-2.3426	0.0000	
3.950	4.000	3.967	-15.520	-2.1685	0.0000	
3.950	4.050	3.969	-15.345	-2.0137	0.0000	
3.950	4.100	3.971	-15.155	-1.8760	0.0000	
3.950	4.150	3.972	-14.951	-1.7534	0.0000	
3.950	4.200	3.974	-14.743	-1.6444	0.0000	
3.950	4.250	3.976	-14.546	-1.5476	0.0000	
3.950	4.300	3.979	-14.378	-1.4618	0.0000	
3.950	4.350	3.981	-14.259	-1.3859	0.0000	
3.950	4.400	3.984	-14.194	-1.3186	0.0000	
3.950	4.450	3.987	-14.158	-1.2595	0.0000	
3.950	4.500	3.989	-14.126	-1.2071	0.0000	
3.950	4.550	3.990	-14.081	-1.1605	0.0000	
3.950	4.600	3.991	-14.021	-1.1192	0.0000	
3.950	4.650	3.992	-13.945	-1.0827	0.0000	
3.950	4.700	3.992	-13.858	-1.0505	0.0000	
3.950	4.750	3.993	-13.761	-1.0220	0.0000	
3.950	4.800	3.996	-13.654	-0.9970	0.0000	
3.950	4.850	4.003	-13.550	-0.9750	0.0000	
3.950	4.900	4.013	-13.471	-0.9558	0.0000	
3.950	4.950	4.021	-13.429	-0.9392	0.0000	
3.950	5.000	4.026	-13.415	-0.9249	0.0000	
4.000	3.700	4.005	-16.252	-3.5889	0.0000	
4.000	3.750	4.007	-16.144	-3.2785	0.0000	
4.000	3.800	4.009	-16.020	-3.0019	0.0000	
4.000	3.850	4.012	-15.886	-2.7553	0.0000	
4.000	3.900	4.014	-15.743	-2.5358	0.0000	
4.000	3.950	4.016	-15.590	-2.3404	0.0000	
4.000	4.000	4.017	-15.427	-2.1665	0.0000	
4.000	4.050	4.019	-15.251	-2.0117	0.0000	
4.000	4.100	4.021	-15.060	-1.8740	0.0000	
4.000	4.150	4.022	-14.855	-1.7516	0.0000	
4.000	4.200	4.024	-14.645	-1.6427	0.0000	
4.000	4.250	4.026	-14.448	-1.5460	0.0000	
4.000	4.300	4.029	-14.280	-1.4602	0.0000	
4.000	4.350	4.031	-14.161	-1.3844	0.0000	
4.000	4.400	4.034	-14.095	-1.3171	0.0000	
4.000	4.450	4.037	-14.060	-1.2582	0.0000	
4.000	4.500	4.039	-14.028	-1.2058	0.0000	
4.000	4.550	4.040	-13.983	-1.1592	0.0000	
4.000	4.600	4.041	-13.922	-1.1180	0.0000	
4.000	4.650	4.042	-13.847	-1.0816	0.0000	
4.000	4.700	4.042	-13.759	-1.0494	0.0000	
4.000	4.750	4.043	-13.661	-1.0210	0.0000	
4.000	4.800	4.046	-13.555	-0.9960	0.0000	
4.000	4.850	4.053	-13.451	-0.9741	0.0000	
4.000	4.900	4.063	-13.372	-0.9549	0.0000	
4.000	4.950	4.071	-13.329	-0.9383	0.0000	
4.000	5.000	4.076	-13.315	-0.9240	0.0000	
4.050	3.700	4.055	-16.159	-3.5862	0.0000	
4.050	3.750	4.057	-16.051	-3.2759	0.0000	
4.050	3.800	4.059	-15.928	-2.9993	0.0000	
4.050	3.850	4.062	-15.794	-2.7528	0.0000	
4.050	3.900	4.064	-15.651	-2.5333	0.0000	
4.050	3.950	4.066	-15.497	-2.3381	0.0000	
4.050	4.000	4.067	-15.334	-2.1642	0.0000	
4.050	4.050	4.069	-15.157	-2.0095	0.0000	
4.050	4.100	4.071	-14.965	-1.8719	0.0000	
4.050	4.150	4.072	-14.759	-1.7495	0.0000	
4.050	4.200	4.074	-14.548	-1.6408	0.0000	
4.050	4.250	4.076	-14.350	-1.5441	0.0000	
4.050	4.300	4.079	-14.182	-1.4585	0.0000	
4.050	4.350	4.081	-14.063	-1.3827	0.0000	
4.050	4.400	4.084	-13.997	-1.3155	0.0000	
4.050	4.450	4.087	-13.962	-1.2566	0.0000	
4.050	4.500	4.089	-13.929	-1.2044	0.0000	
4.050	4.550	4.090	-13.885	-1.1579	0.0000	
4.050	4.600	4.091	-13.824	-1.1167	0.0000	
4.050	4.650	4.092	-13.748	-1.0803	0.0000	
4.050	4.700	4.092	-13.660	-1.0482	0.0000	
4.050	4.750	4.093	-13.562	-1.0198	0.0000	
4.050	4.800	4.096	-13.456	-0.9949	0.0000	
4.050	4.850	4.103	-13.351	-0.9730	0.0000	
4.050	4.900	4.113	-13.272	-0.9538	0.0000	
4.050	4.950	4.121	-13.230	-0.9372	0.0000	
4.050	5.000	4.126	-13.216	-0.9230	0.0000	
4.100	3.700	4.105	-16.067	-3.5832	0.0000	
4.100	3.750	4.107	-15.959	-3.2729	0.0000	
4.100	3.800	4.109	-15.836	-2.9964	0.0000	
4.100	3.850	4.112	-15.702	-2.7500	0.0000	
4.100	3.900	4.114	-15.558	-2.5306	0.0000	
4.100	3.950	4.116	-15.405	-2.3354	0.0000	
4.100	4.000	4.117	-15.241	-2.1616	0.0000	
4.100	4.050	4.119	-15.063	-2.0071	0.0000	
4.100	4.100	4.121	-14.870	-1.8695	0.0000	
4.100	4.150	4.122	-14.663	-1.7473	0.0000	
4.100	4.200	4.124	-14.451	-1.6386	0.0000	
4.100	4.250	4.126	-14.252	-1.5421	0.0000	
4.100	4.300	4.129	-14.084	-1.4565	0.0000	
4.100	4.350	4.131	-13.964	-1.3808	0.0000	
4.100	4.400	4.134	-13.898	-1.3138	0.0000	
4.100	4.450	4.137	-13.863	-1.2550	0.0000	
4.100	4.500	4.139	-13.831	-1.2027	0.0000	
4.100	4.550	4.140	-13.786	-1.1563	0.0000	
4.100	4.600	4.141	-13.726	-1.1152	0.0000	
4.100	4.650	4.142	-13.650	-1.0789	0.0000	
4.100	4.700	4.142	-13.561	-1.0468	0.0000	
4.100	4.750	4.143	-13.463	-1.0186	0.0000	
4.100	4.800	4.146	-13.356	-0.9937	0.0000	
4.100	4.850	4.153	-13.251	-0.9718	0.0000	
4.100	4.900	4.163	-13.172	-0.9526	0.0000	
4.100	4.950	4.171	-13.130	-0.9361	0.0000	
4.100	5.000	4.176	-13.116	-0.9218	0.0000	
4.150	3.700	4.155	-15.974	-3.5798	0.0000	
4.150	3.750	4.157	-15.866	-3.2697	0.0000	
4.150	3.800	4.159	-15.743	-2.9932	0.0000	
4.150	3.850	4.162	-15.610	-2.7468	0.0000	
4.150	3.900	4.164	-15.466	-2.5275	0.0000	
4.150	3.950	4.166	-15.313	-2.3324	0.0000	
4.150	4.000	4.167	-15.148	-2.1587	0.0000	
4.150	4.050	4.169	-14.969	-2.0043	0.0000	
4.150	4.100	4.171	-14.775	-1.8669	0.0000	
4.150	4.150	4.172	-14.566	-1.7447	0.0000	
4.150	4.200	4.174	-14.354	-1.6362	0.0000	
4.150	4.250	4.176	-14.155	-1.5398	0.0000	
4.150	4.300	4.179	-13.985	-1.4543	0.0000	
4.150	4.350	4.181	-13.866	-1.3787	0.0000	
4.150	4.400	4.184	-13.800	-1.3118	0.0000	
4.150	4.450	4.187	-13.765	-1.2531	0.0000	
4.150	4.500	4.189	-13.733	-1.2009	0.0000	
4.150	4.550	4.190	-13.688	-1.1546	0.0000	
4.150	4.600	4.191	-13.628	-1.1136	0.0000	
4.150	4.650	4.192	-13.551	-1.0773	0.0000	
4.150	4.700	4.192	-13.463	-1.0453	0.0000	
4.150	4.750	4.193	-13.364	-1.0171	0.0000	
4.150	4.800	4.196	-13.257	-0.9923	0.0000	
4.150	4.850	4.203	-13.152	-0.9704	0.0000	
4.150	4.900	4.213	-13.072	-0.9513	0.0000	
4.150	4.950	4.221	-13.030	-0.9348	0.0000	
4.150	5.000	4.226	-13.016	-0.9206	0.0000	
4.200	3.700	4.205	-15.881	-3.5761	0.0000	
4.200	3.750	4.207	-15.774	-3.2660	0.0000	
4.200	3.800	4.209	-15.651	-2.9896	0.0000	
4.200	3.850	4.212	-15.518	-2.7433	0.0000	
4.200	3.900	4.214	-15.374	-2.5241	0.0000	
4.200	3.950	4.216	-15.220	-2.3292	0.0000	
4.200	4.000	4.217	-15.055	-2.1555	0.0000	
4.200	4.050	4.219	-14.875	-2.0012	0.0000	
4.200	4.100	4.221	-14.680	-1.8639	0.0000	
4.200	4.150	4.222	-14.470	-1.7419	0.0000	
4.200	4.200	4.224	-14.257	-1.6335	0.0000	
4.200	4.250	4.226	-14.057	-1.5372	0.0000	
4.200	4.300	4.229	-13.887	-1.4518	0.0000	
4.200	4.350	4.231	-13.767	-1.3764	0.0000	
4.200	4.400	4.234	-13.701	-1.3095	0.0000	
4.200	4.450	4.237	-13.666	-1.2509	0.0000	
4.200	4.500	4.239	-13.634	-1.1989	0.0000	
4.200	4.550	4.240	-13.590	-1.1527	0.0000	
4.200	4.600	4.241	-13.529	-1.1118	0.0000	
4.200	4.650	4.242	-13.453	-1.0756	0.0000	
4.200	4.700	4.242	-13.364	-1.0437	0.0000	
4.200	4.750	4.243	-13.265	-1.0155	0.0000	
4.200	4.800	4.246	-13.157	-0.9907	0.0000	
4.200	4.850	4.253	-13.052	-0.9689	0.0000	
4.200	4.900	4.263	-12.973	-0.9498	0.0000	
4.200	4.950	4.271	-12.930	-0.9333	0.0000	
4.200	5.000	4.276	-12.916	-0.9191	0.0000	
4.250	3.700	4.255	-15.788	-3.5719	0.0000	
4.250	3.750	4.257	-15.681	-3.2619	0.0000	
4.250	3.800	4.259	-15.558	-2.9857	0.0000	
4.250	3.850	4.262	-15.425	-2.7395	0.0000	
4.250	3.900	4.264	-15.282	-2.5204	0.0000	
4.250	3.950	4.266	-15.128	-2.3255	0.0000	
4.250	4.000	4.267	-14.962	-2.1520	0.0000	
4.250	4.050	4.269	-14.781	-1.9978	0.0000	
4.250	4.100	4.271	-14.584	-1.8606	0.0000	
4.250	4.150	4.272	-14.374	-1.7388	0.0000	
4.250	4.200	4.274	-14.160	-1.6305	0.0000	
4.250	4.250	4.276	-13.959	-1.5343	0.0000	
4.250	4.300	4.279	-13.789	-1.4491	0.0000	
4.250	4.350	4.281	-13.669	-1.3738	0.0000	
4.250	4.400	4.284	-13.603	-1.3071	0.0000	
4.250	4.450	4.287	-13.568	-1.2486	0.0000	
4.250	4.500	4.289	-13.536	-1.1967	0.0000	
4.250	4.550	4.290	-13.491	-1.1505	0.0000	
4.250	4.600	4.291	-13.431	-1.1097	0.0000	
4.250	4.650	4.292	-13.354	-1.0736	0.0000	
4.250	4.700	4.292	-13.265	-1.0418	0.0000	
4.250	4.750	4.293	-13.166	-1.0137	0.0000	
4.250	4.800	4.296	-13.058	-0.9890	0.0000	
4.250	4.850	4.303	-12.953	-0.9672	0.0000	
4.250	4.900	4.313	-12.873	-0.9482	0.0000	
4.250	4.950	4.321	-12.831	-0.9317	0.0000	
4.250	5.000	4.326	-12.817	-0.9175	0.0000	
4.300	3.700	4.305	-15.695	-3.5673	0.0000	
4.300	3.750	4.307	-15.588	-3.2574	0.0000	
4.300	3.800	4.309	-15.466	-2.9813	0.0000	
4.300	3.850	4.312	-15.333	-2.7351	0.0000	
4.300	3.900	4.314	-15.190	-2.5161	0.0000	
4.300	3.950	4.316	-15.035	-2.3214	0.0000	
4.300	4.000	4.317	-14.869	-2.1480	0.0000	
4.300	4.050	4.319	-14.687	-1.9940	0.0000	
4.300	4.100	4.321	-14.489	-1.8570	0.0000	
4.300	4.150	4.322	-14.278	-1.7353	0.0000	
4.300	4.200	4.324	-14.062	-1.6271	0.0000	
4.300	4.250	4.326	-13.861	-1.5311	0.0000	
4.300	4.300	4.329	-13.690	-1.4461	0.0000	
4.300	4.350	4.331	-13.570	-1.3709	0.0000	
4.300	4.400	4.334	-13.504	-1.3043	0.0000	
4.300	4.450	4.337	-13.469	-1.2460	0.0000	
4.300	4.500	4.339	-13.437	-1.1942	0.0000	
4.300	4.550	4.340	-13.393	-1.1481	0.0000	
4.300	4.600	4.341	-13.332	-1.1074	0.0000	
4.300	4.650	4.342	-13.256	-1.0715	0.0000	
4.300	4.700	4.342	-13.166	-1.0397	0.0000	
4.300	4.750	4.343	-13.067	-1.0117	0.0000	
4.300	4.800	4.346	-12.959	-0.9871	0.0000	
4.300	4.850	4.353	-12.853	-0.9653	0.0000	
4.300	4.900	4.363	-12.773	-0.9463	0.0000	
4.300	4.950	4.371	-12.731	-0.9298	0.0000	
4.300	5.000	4.376	-12.717	-0.9158	0.0000	
4.350	3.700	4.355	-15.602	-3.5621	0.0000	
4.350	3.750	4.357	-15.496	-3.2524	0.0000	
4.350	3.800	4.359	-15.374	-2.9764	0.0000	
4.350	3.850	4.362	-15.241	-2.7303	0.0000	
4.350	3.900	4.364	-15.097	-2.5115	0.0000	
4.350	3.950	4.366	-14.943	-2.3169	0.0000	
4.350	4.000	4.367	-14.776	-2.1436	0.0000	
4.350	4.050	4.369	-14.593	-1.9898	0.0000	
4.350	4.100	4.371	-14.394	-1.8529	0.0000	
4.350	4.150	4.372	-14.181	-1.7314	0.0000	
4.350	4.200	4.374	-13.965	-1.6234	0.0000	
4.350	4.250	4.376	-13.763	-1.5276	0.0000	
4.350	4.300	4.379	-13.592	-1.4427	0.0000	
4.350	4.350	4.381	-13.471	-1.3677	0.0000	
4.350	4.400	4.384	-13.405	-1.3012	0.0000	
4.350	4.450	4.387	-13.371	-1.2430	0.0000	
4.350	4.500	4.389	-13.339	-1.1914	0.0000	
4.350	4.550	4.390	-13.295	-1.1455	0.0000	
4.350	4.600	4.391	-13.234	-1.1049	0.0000	
4.350	4.650	4.392	-13.157	-1.0690	0.0000	
4.350	4.700	4.392	-13.067	-1.0374	0.0000	
4.350	4.750	4.393	-12.967	-1.0095	0.0000	
4.350	4.800	4.396	-12.859	-0.9849	0.0000	
4.350	4.850	4.403	-12.754	-0.9632	0.0000	
4.350	4.900	4.413	-12.674	-0.9442	0.0000	
4.350	4.950	4.421	-12.631	-0.9278	0.0000	
4.350	5.000	4.426	-12.617	-0.9138	0.0000	
4.400	3.700	4.405	-15.509	-3.5565	0.0000	
4.400	3.750	4.407	-15.403	-3.2469	0.0000	
4.400	3.800	4.409	-15.281	-2.9709	0.0000	
4.400	3.850	4.412	-15.149	-2.7250	0.0000	
4.400	3.900	4.414	-15.005	-2.5063	0.0000	
4.400	3.950	4.416	-14.850	-2.3119	0.0000	
4.400	4.000	4.417	-14.683	-2.1387	0.0000	
4.400	4.050	4.419	-14.499	-1.9851	0.0000	
4.400	4.100	4.421	-14.299	-1.8484	0.0000	
4.400	4.150	4.422	-14.085	-1.7270	0.0000	
4.400	4.200	4.424	-13.868	-1.6193	0.0000	
4.400	4.250	4.426	-13.665	-1.5236	0.0000	
4.400	4.300	4.429	-13.493	-1.4389	0.0000	
4.400	4.350	4.431	-13.373	-1.3641	0.0000	
4.400	4.400	4.434	-13.307	-1.2978	0.0000	
4.400	4.450	4.437	-13.272	-1.2398	0.0000	
4.400	4.500	4.439	-13.240	-1.1883	0.0000	
4.400	4.550	4.440	-13.196	-1.1425	0.0000	
4.400	4.600	4.441	-13.135	-1.1020	0.0000	
4.400	4.650	4.442	-13.058	-1.0663	0.0000	
4.400	4.700	4.442	-12.968	-1.0348	0.0000	
4.400	4.750	4.443	-12.868	-1.0070	0.0000	
4.400	4.800	4.446	-12.760	-0.9825	0.0000	
4.400	4.850	4.453	-12.654	-0.9609	0.0000	
4.400	4.900	4.463	-12.574	-0.9419	0.0000	
4.400	4.950	4.471	-12.532	-0.9255	0.0000	
4.400	5.000	4.476	-12.518	-0.9116	0.0000	
4.450	3.700	4.455	-15.416	-3.5502	0.0000	
4.450	3.750	4.457	-15.310	-3.2407	0.0000	
4.450	3.800	4.459	-15.189	-2.9649	0.0000	
4.450	3.850	4.462	-15.057	-2.7192	0.0000	
4.450	3.900	4.464	-14.913	-2.5006	0.0000	
4.450	3.950	4.466	-14.758	-2.3063	0.0000	
4.450	4.000	4.467	-14.589	-2.1333	0.0000	
4.450	4.050	4.469	-14.404	-1.9799	0.0000	
4.450	4.100	4.471	-14.203	-1.8434	0.0000	
4.450	4.150	4.472	-13.988	-1.7222	0.0000	
4.450	4.200	4.474	-13.770	-1.6147	0.0000	
4.450	4.250	4.476	-13.566	-1.5193	0.0000	
4.450	4.300	4.479	-13.395	-1.4347	0.0000	
4.450	4.350	4.481	-13.274	-1.3601	0.0000	
4.450	4.400	4.484	-13.208	-1.2940	0.0000	
4.450	4.450	4.487	-13.173	-1.2362	0.0000	
4.450	4.500	4.489	-13.142	-1.1848	0.0000	
4.450	4.550	4.490	-13.098	-1.1392	0.0000	
4.450	4.600	4.491	-13.037	-1.0989	0.0000	
4.450	4.650	4.492	-12.959	-1.0633	0.0000	
4.450	4.700	4.492	-12.869	-1.0319	0.0000	
4.450	4.750	4.493	-12.769	-1.0042	0.0000	
4.450	4.800	4.496	-12.660	-0.9798	0.0000	
4.450	4.850	4.503	-12.554	-0.9583	0.0000	
4.450	4.900	4.513	-12.475	-0.9393	0.0000	
4.450	4.950	4.521	-12.432	-0.9230	0.0000	
4.450	5.000	4.526	-12.418	-0.9091	0.0000	
4.500	3.700	4.505	-15.324	-3.5432	0.0000	
4.500	3.750	4.507	-15.218	-3.2339	0.0000	
4.500	3.800	4.509	-15.097	-2.9583	0.0000	
4.500	3.850	4.512	-14.965	-2.7126	0.0000	
4.500	3.900	4.514	-14.821	-2.4942	0.0000	
4.500	3.950	4.516	-14.665	-2.3001	0.0000	
4.500	4.000	4.517	-14.496	-2.1274	0.0000	
4.500	4.050	4.519	-14.310	-1.9741	0.0000	
4.500	4.100	4.521	-14.108	-1.8378	0.0000	
4.500	4.150	4.522	-13.891	-1.7169	0.0000	
4.500	4.200	4.524	-13.672	-1.6096	0.0000	
4.500	4.250	4.526	-13.468	-1.5144	0.0000	
4.500	4.300	4.529	-13.296	-1.4301	0.0000	
4.500	4.350	4.531	-13.175	-1.3556	0.0000	
4.500	4.400	4.534	-13.109	-1.2897	0.0000	
4.500	4.450	4.537	-13.075	-1.2321	0.0000	
4.500	4.500	4.539	-13.043	-1.1810	0.0000	
4.500	4.550	4.540	-12.999	-1.1355	0.0000	
4.500	4.600	4.541	-12.938	-1.0954	0.0000	
4.500	4.650	4.542	-12.861	-1.0599	0.0000	
4.500	4.700	4.542	-12.770	-1.0287	0.0000	
4.500	4.750	4.543	-12.670	-1.0011	0.0000	
4.500	4.800	4.546	-12.561	-0.9768	0.0000	
4.500	4.850	4.553	-12.455	-0.9554	0.0000	
4.500	4.900	4.563	-12.375	-0.9365	0.0000	
4.500	4.950	4.571	-12.332	-0.9202	0.0000	
4.500	5.000	4.576	-12.318	-0.9063	0.0000	
4.550	3.700	4.555	-15.231	-3.5355	0.0000	
4.550	3.750	4.557	-15.126	-3.2265	0.0000	
4.550	3.800	4.559	-15.004	-2.9510	0.0000	
4.550	3.850	4.562	-14.873	-2.7055	0.0000	
4.550	3.900	4.564	-14.729	-2.4872	0.0000	
4.550	3.950	4.566	-14.572	-2.2933	0.0000	
4.550	4.000	4.567	-14.402	-2.1207	0.0000	
4.550	4.050	4.569	-14.216	-1.9677	0.0000	
4.550	4.100	4.571	-14.012	-1.8317	0.0000	
4.550	4.150	4.572	-13.795	-1.7110	0.0000	
4.550	4.200	4.574	-13.575	-1.6039	0.0000	
4.550	4.250	4.576	-13.370	-1.5090	0.0000	
4.550	4.300	4.579	-13.198	-1.4249	0.0000	
4.550	4.350	4.581	-13.076	-1.3507	0.0000	
4.550	4.400	4.584	-13.010	-1.2850	0.0000	
4.550	4.450	4.587	-12.976	-1.2276	0.0000	
4.550	4.500	4.589	-12.944	-1.1767	0.0000	
4.550	4.550	4.590	-12.900	-1.1314	0.0000	
4.550	4.600	4.591	-12.839	-1.0915	0.0000	
4.550	4.650	4.592	-12.762	-1.0562	0.0000	
4.550	4.700	4.592	-12.671	-1.0251	0.0000	
4.550	4.750	4.593	-12.571	-0.9977	0.0000	
4.550	4.800	4.596	-12.462	-0.9735	0.0000	
4.550	4.850	4.603	-12.355	-0.9521	0.0000	
4.550	4.900	4.613	-12.275	-0.9333	0.0000	
4.550	4.950	4.621	-12.233	-0.9170	0.0000	
4.550	5.000	4.626	-12.219	-0.9033	0.0000	
4.600	3.700	4.605	-15.138	-3.5271	0.0000	
4.600	3.750	4.607	-15.033	-3.2182	0.0000	
4.600	3.800	4.609	-14.912	-2.9429	0.0000	
4.600	3.850	4.612	-14.781	-2.6975	0.0000	
4.600	3.900	4.614	-14.637	-2.4795	0.0000	
4.600	3.950	4.616	-14.480	-2.2858	0.0000	
4.600	4.000	4.617	-14.309	-2.1134	0.0000	
4.600	4.050	4.619	-14.121	-1.9607	0.0000	
4.600	4.100	4.621	-13.916	-1.8249	0.0000	
4.600	4.150	4.622	-13.698	-1.7045	0.0000	
4.600	4.200	4.624	-13.477	-1.5977	0.0000	
4.600	4.250	4.626	-13.272	-1.5030	0.0000	
4.600	4.300	4.629	-13.099	-1.4192	0.0000	
4.600	4.350	4.631	-12.977	-1.3453	0.0000	
4.600	4.400	4.634	-12.911	-1.2798	0.0000	
4.600	4.450	4.637	-12.877	-1.2227	0.0000	
4.600	4.500	4.639	-12.846	-1.1720	0.0000	
4.600	4.550	4.640	-12.801	-1.1269	0.0000	
4.600	4.600	4.641	-12.741	-1.0871	0.0000	
4.600	4.650	4.642	-12.663	-1.0520	0.0000	
4.600	4.700	4.642	-12.572	-1.0211	0.0000	
4.600	4.750	4.643	-12.471	-0.9939	0.0000	
4.600	4.800	4.646	-12.362	-0.9698	0.0000	
4.600	4.850	4.653	-12.256	-0.9485	0.0000	
4.600	4.900	4.663	-12.176	-0.9297	0.0000	
4.600	4.950	4.671	-12.133	-0.9135	0.0000	
4.600	5.000	4.676	-12.119	-0.8998	0.0000	
4.650	3.700	4.655	-15.046	-3.5178	0.0000	
4.650	3.750	4.657	-14.941	-3.2091	0.0000	
4.650	3.800	4.659	-14.820	-2.9340	0.0000	
4.650	3.850	4.662	-14.689	-2.6888	0.0000	
4.650	3.900	4.664	-14.544	-2.4710	0.0000	
4.650	3.950	4.666	-14.387	-2.2776	0.0000	
4.650	4.000	4.667	-14.215	-2.1054	0.0000	
4.650	4.050	4.669	-14.026	-1.9529	0.0000	
4.650	4.100	4.671	-13.820	-1.8174	0.0000	
4.650	4.150	4.672	-13.601	-1.6973	0.0000	
4.650	4.200	4.674	-13.379	-1.5908	0.0000	
4.650	4.250	4.676	-13.173	-1.4964	0.0000	
4.650	4.300	4.679	-13.000	-1.4129	0.0000	
4.650	4.350	4.681	-12.879	-1.3392	0.0000	
4.650	4.400	4.684	-12.812	-1.2741	0.0000	
4.650	4.450	4.687	-12.778	-1.2172	0.0000	
4.650	4.500	4.689	-12.747	-1.1667	0.0000	
4.650	4.550	4.690	-12.703	-1.1219	0.0000	
4.650	4.600	4.691	-12.642	-1.0823	0.0000	
4.650	4.650	4.692	-12.564	-1.0474	0.0000	
4.650	4.700	4.692	-12.473	-1.0167	0.0000	
4.650	4.750	4.693	-12.372	-0.9896	0.0000	
4.650	4.800	4.696	-12.263	-0.9657	0.0000	
4.650	4.850	4.703	-12.156	-0.9445	0.0000	
4.650	4.900	4.713	-12.076	-0.9258	0.0000	
4.650	4.950	4.721	-12.033	-0.9096	0.0000	
4.650	5.000	4.726	-12.019	-0.8960	0.0000	
4.700	3.700	4.705	-14.953	-3.5077	0.0000	
4.700	3.750	4.707	-14.849	-3.1992	0.0000	
4.700	3.800	4.709	-14.729	-2.9243	0.0000	
4.700	3.850	4.712	-14.597	-2.6793	0.0000	
4.700	3.900	4.714	-14.452	-2.4616	0.0000	
4.700	3.950	4.716	-14.294	-2.2685	0.0000	
4.700	4.000	4.717	-14.122	-2.0965	0.0000	
4.700	4.050	4.719	-13.932	-1.9444	0.0000	
4.700	4.100	4.721	-13.724	-1.8092	0.0000	
4.700	4.150	4.722	-13.504	-1.6894	0.0000	
4.700	4.200	4.724	-13.282	-1.5832	0.0000	
4.700	4.250	4.726	-13.075	-1.4891	0.0000	
4.700	4.300	4.729	-12.901	-1.4059	0.0000	
4.700	4.350	4.731	-12.780	-1.3325	0.0000	
4.700	4.400	4.734	-12.713	-1.2677	0.0000	
4.700	4.450	4.737	-12.679	-1.2111	0.0000	
4.700	4.500	4.739	-12.648	-1.1609	0.0000	
4.700	4.550	4.740	-12.604	-1.1163	0.0000	
4.700	4.600	4.741	-12.543	-1.0770	0.0000	
4.700	4.650	4.742	-12.465	-1.0423	0.0000	
4.700	4.700	4.742	-12.374	-1.0118	0.0000	
4.700	4.750	4.743	-12.273	-0.9849	0.0000	
4.700	4.800	4.746	-12.164	-0.9611	0.0000	
4.700	4.850	4.753	-12.057	-0.9400	0.0000	
4.700	4.900	4.763	-11.977	-0.9214	0.0000	
4.700	4.950	4.771	-11.934	-0.9053	0.0000	
4.700	5.000	4.776	-11.920	-0.8918	0.0000	
4.750	3.700	4.755	-14.861	-3.4965	0.0000	
4.750	3.750	4.757	-14.757	-3.1883	0.0000	
4.750	3.800	4.759	-14.637	-2.9136	0.0000	
4.750	3.850	4.762	-14.505	-2.6688	0.0000	
4.750	3.900	4.764	-14.360	-2.4514	0.0000	
4.750	3.950	4.766	-14.202	-2.2585	0.0000	
4.750	4.000	4.767	-14.028	-2.0868	0.0000	
4.750	4.050	4.769	-13.837	-1.9350	0.0000	
4.750	4.100	4.771	-13.628	-1.8001	0.0000	
4.750	4.150	4.772	-13.407	-1.6807	0.0000	
4.750	4.200	4.774	-13.184	-1.5748	0.0000	
4.750	4.250	4.776	-12.976	-1.4811	0.0000	
4.750	4.300	4.779	-12.803	-1.3982	0.0000	
4.750	4.350	4.781	-12.681	-1.3252	0.0000	
4.750	4.400	4.784	-12.614	-1.2606	0.0000	
4.750	4.450	4.787	-12.580	-1.2044	0.0000	
4.750	4.500	4.789	-12.549	-1.1545	0.0000	
4.750	4.550	4.790	-12.505	-1.1101	0.0000	
4.750	4.600	4.791	-12.444	-1.0710	0.0000	
4.750	4.650	4.792	-12.366	-1.0366	0.0000	
4.750	4.700	4.792	-12.275	-1.0063	0.0000	
4.750	4.750	4.793	-12.174	-0.9797	0.0000	
4.750	4.800	4.796	-12.064	-0.9561	0.0000	
4.750	4.850	4.803	-11.957	-0.9351	0.0000	
4.750	4.900	4.813	-11.877	-0.9165	0.0000	
4.750	4.950	4.821	-11.834	-0.9005	0.0000	
4.750	5.000	4.826	-11.820	-0.8871	0.0000	
4.800	3.700	4.805	-14.769	-3.4844	0.0000	
4.800	3.750	4.807	-14.665	-3.1764	0.0000	
4.800	3.800	4.809	-14.545	-2.9019	0.0000	
4.800	3.850	4.812	-14.414	-2.6573	0.0000	
4.800	3.900	4.814	-14.268	-2.4402	0.0000	
4.800	3.950	4.816	-14.109	-2.2476	0.0000	
4.800	4.000	4.817	-13.935	-2.0762	0.0000	
4.800	4.050	4.819	-13.742	-1.9247	0.0000	
4.800	4.100	4.821	-13.532	-1.7901	0.0000	
4.800	4.150	4.822	-13.310	-1.6711	0.0000	
4.800	4.200	4.824	-13.086	-1.5656	0.0000	
4.800	4.250	4.826	-12.878	-1.4722	0.0000	
4.800	4.300	4.829	-12.704	-1.3897	0.0000	
4.800	4.350	4.831	-12.582	-1.3170	0.0000	
4.800	4.400	4.834	-12.515	-1.2528	0.0000	
4.800	4.450	4.837	-12.481	-1.1969	0.0000	
4.800	4.500	4.839	-12.450	-1.1474	0.0000	
4.800	4.550	4.840	-12.406	-1.1033	0.0000	
4.800	4.600	4.841	-12.345	-1.0645	0.0000	
4.800	4.650	4.842	-12.267	-1.0304	0.0000	
4.800	4.700	4.842	-12.176	-1.0003	0.0000	
4.800	4.750	4.843	-12.075	-0.9739	0.0000	
4.800	4.800	4.846	-11.965	-0.9505	0.0000	
4.800	4.850	4.853	-11.858	-0.9296	0.0000	
4.800	4.900	4.863	-11.778	-0.9111	0.0000	
4.800	4.950	4.871	-11.735	-0.8952	0.0000	
4.800	5.000	4.876	-11.721	-0.8819	0.0000	
4.850	3.700	4.855	-14.677	-3.4712	0.0000	
4.850	3.750	4.857	-14.574	-3.1634	0.0000	
4.850	3.800	4.859	-14.454	-2.8892	0.0000	
4.850	3.850	4.862	-14.322	-2.6448	0.0000	
4.850	3.900	4.864	-14.176	-2.4279	0.0000	
4.850	3.950	4.866	-14.016	-2.2357	0.0000	
4.850	4.000	4.867	-13.841	-2.0646	0.0000	
4.850	4.050	4.869	-13.647	-1.9135	0.0000	
4.850	4.100	4.871	-13.436	-1.7792	0.0000	
4.850	4.150	4.872	-13.213	-1.6606	0.0000	
4.850	4.200	4.874	-12.988	-1.5555	0.0000	
4.850	4.250	4.876	-12.779	-1.4625	0.0000	
4.850	4.300	4.879	-12.605	-1.3804	0.0000	
4.850	4.350	4.881	-12.483	-1.3081	0.0000	
4.850	4.400	4.884	-12.416	-1.2443	0.0000	
4.850	4.450	4.887	-12.382	-1.1887	0.0000	
4.850	4.500	4.889	-12.351	-1.1395	0.0000	
4.850	4.550	4.890	-12.307	-1.0958	0.0000	
4.850	4.600	4.891	-12.246	-1.0573	0.0000	
4.850	4.650	4.892	-12.168	-1.0234	0.0000	
4.850	4.700	4.892	-12.077	-0.9937	0.0000	
4.850	4.750	4.893	-11.975	-0.9675	0.0000	
4.850	4.800	4.896	-11.865	-0.9443	0.0000	
4.850	4.850	4.903	-11.758	-0.9235	0.0000	
4.850	4.900	4.913	-11.678	-0.9051	0.0000	
4.850	4.950	4.921	-11.635	-0.8893	0.0000	
4.850	5.000	4.926	-11.621	-0.8761	0.0000	
4.900	3.700	4.905	-14.586	-3.4568	0.0000	
4.900	3.750	4.907	-14.482	-3.1494	0.0000	
4.900	3.800	4.909	-14.362	-2.8754	0.0000	
4.900	3.850	4.912	-14.230	-2.6312	0.0000	
4.900	3.900	4.914	-14.084	-2.4146	0.0000	
4.900	3.950	4.916	-13.924	-2.2227	0.0000	
4.900	4.000	4.917	-13.747	-2.0519	0.0000	
4.900	4.050	4.919	-13.552	-1.9012	0.0000	
4.900	4.100	4.921	-13.340	-1.7673	0.0000	
4.900	4.150	4.922	-13.115	-1.6491	0.0000	
4.900	4.200	4.924	-12.890	-1.5445	0.0000	
4.900	4.250	4.926	-12.681	-1.4519	0.0000	
4.900	4.300	4.929	-12.506	-1.3702	0.0000	
4.900	4.350	4.931	-12.384	-1.2983	0.0000	
4.900	4.400	4.934	-12.317	-1.2349	0.0000	
4.900	4.450	4.937	-12.283	-1.1797	0.0000	
4.900	4.500	4.939	-12.252	-1.1309	0.0000	
4.900	4.550	4.940	-12.208	-1.0875	0.0000	
4.900	4.600	4.941	-12.147	-1.0493	0.0000	
4.900	4.650	4.942	-12.069	-1.0158	0.0000	
4.900	4.700	4.942	-11.978	-0.9863	0.0000	
4.900	4.750	4.943	-11.876	-0.9604	0.0000	
4.900	4.800	4.946	-11.766	-0.9374	0.0000	
4.900	4.850	4.953	-11.659	-0.9168	0.0000	
4.900	4.900	4.963	-11.579	-0.8985	0.0000	
4.900	4.950	4.971	-11.536	-0.8828	0.0000	
4.900	5.000	4.976	-11.522	-0.8697	0.0000	
4.950	3.700	4.955	-14.494	-3.4412	0.0000	
4.950	3.750	4.957	-14.391	-3.1341	0.0000	
4.950	3.800	4.959	-14.271	-2.8604	0.0000	
4.950	3.850	4.962	-14.139	-2.6165	0.0000	
4.950	3.900	4.964	-13.992	-2.4001	0.0000	
4.950	3.950	4.966	-13.831	-2.2086	0.0000	
4.950	4.000	4.967	-13.653	-2.0381	0.0000	
4.950	4.050	4.969	-13.457	-1.8878	0.0000	
4.950	4.100	4.971	-13.244	-1.7544	0.0000	
4.950	4.150	4.972	-13.018	-1.6366	0.0000	
4.950	4.200	4.974	-12.791	-1.5324	0.0000	
4.950	4.250	4.976	-12.582	-1.4403	0.0000	
4.950	4.300	4.979	-12.407	-1.3590	0.0000	
4.950	4.350	4.981	-12.285	-1.2876	0.0000	
4.950	4.400	4.984	-12.218	-1.2246	0.0000	
4.950	4.450	4.987	-12.184	-1.1699	0.0000	
4.950	4.500	4.989	-12.153	-1.1214	0.0000	
4.950	4.550	4.990	-12.109	-1.0784	0.0000	
4.950	4.600	4.991	-12.048	-1.0406	0.0000	
4.950	4.650	4.992	-11.970	-1.0074	0.0000	
4.950	4.700	4.992	-11.879	-0.9782	0.0000	
4.950	4.750	4.993	-11.777	-0.9526	0.0000	
4.950	4.800	4.996	-11.667	-0.9298	0.0000	
4.950	4.850	5.003	-11.560	-0.9094	0.0000	
4.950	4.900	5.013	-11.479	-0.8912	0.0000	
4.950	4.950	5.021	-11.436	-0.8756	0.0000	
4.950	5.000	5.026	-11.422	-0.8627	0.0000	
5.000	3.700	5.005	-14.403	-3.4244	0.0000	
5.000	3.750	5.007	-14.300	-3.1176	0.0000	
5.000	3.800	5.009	-14.180	-2.8442	0.0000	
5.000	3.850	5.012	-14.048	-2.6005	0.0000	
5.000	3.900	5.014	-13.901	-2.3845	0.0000	
5.000	3.950	5.016	-13.738	-2.1933	0.0000	
5.000	4.000	5.017	-13.559	-2.0231	0.0000	
5.000	4.050	5.019	-13.362	-1.8733	0.0000	
5.000	4.100	5.021	-13.147	-1.7403	0.0000	
5.000	4.150	5.022	-12.921	-1.6230	0.0000	
5.000	4.200	5.024	-12.693	-1.5192	0.0000	
5.000	4.250	5.026	-12.483	-1.4276	0.0000	
5.000	4.300	5.029	-12.308	-1.3468	0.0000	
5.000	4.350	5.031	-12.185	-1.2758	0.0000	
5.000	4.400	5.034	-12.119	-1.2133	0.0000	
5.000	4.450	5.037	-12.085	-1.1591	0.0000	
5.000	4.500	5.039	-12.054	-1.1110	0.0000	
5.000	4.550	5.040	-12.010	-1.0684	0.0000	
5.000	4.600	5.041	-11.949	-1.0310	0.0000	
5.000	4.650	5.042	-11.871	-0.9981	0.0000	
5.000	4.700	5.042	-11.780	-0.9693	0.0000	
5.000	4.750	5.043	-11.678	-0.9440	0.0000	
5.000	4.800	5.046	-11.567	-0.9215	0.0000	
5.000	4.850	5.053	-11.460	-0.9012	0.0000	
5.000	4.900	5.063	-11.380	-0.8831	0.0000	
5.000	4.950	5.071	-11.337	-0.8677	0.0000	
5.000	5.000	5.076	-11.322	-0.8549	0.0000	
